File: root/data/Cu2O_111.xdi
# XDI/1.0 Demeter/0.9.26
# Beamline.name: BM08-LISA
# Column.1: energy eV
# Column.2: mutrans
# Column.3: murefer
# Element.edge: K
# Element.symbol: Cu
# Facility.name: ESRF
# Facility.xray_source: Bending magnet
# Mono.d_spacing: 3.134692
# Mono.name: Si(111)
# Mono.notes: LNT cooled
# Sample.formula: Cu2O
# Sample.name: Copper(I) oxide, Cuprous oxide
# Sample.reference: Cu metal foil
# Scan.start_time: 2023-01-17T17:51:02
# ///
# room temperature
#------------------------
#  energy  mutrans  murefer
  8829.62       0.466238       0.573906
  8839.55       0.462112       0.571159
  8849.4       0.458       0.568298
  8859.24       0.45389       0.565529
  8869.16       0.449821       0.562649
  8879.11       0.445757       0.559818
  8889.05       0.441757       0.556883
  8899.16       0.437755       0.554021
  8909.15       0.433808       0.551095
  8919.11       0.429985       0.548158
  8929.04       0.426318       0.54508
  8938.95       0.4229       0.542537
  8948.94       0.419915       0.540214
  8958.91       0.417987       0.539312
  8959.42       0.417907       0.539386
  8959.92       0.417863       0.539432
  8960.38       0.417839       0.539449
  8960.91       0.41781       0.539768
  8961.43       0.417781       0.539856
  8961.91       0.417769       0.5399
  8962.46       0.417783       0.540198
  8962.91       0.417793       0.540301
  8963.4       0.417845       0.54043
  8963.91       0.417899       0.540744
  8964.36       0.417962       0.540978
  8964.9       0.418049       0.541229
  8965.41       0.418157       0.541612
  8965.88       0.418296       0.541987
  8966.42       0.418458       0.542257
  8966.91       0.41863       0.54281
  8967.39       0.418852       0.543317
  8967.94       0.419112       0.543844
  8968.43       0.419427       0.544666
  8968.91       0.419841       0.545396
  8969.44       0.420301       0.547167
  8969.89       0.420688       0.548579
  8970.4       0.421059       0.54938
  8970.92       0.421578       0.550268
  8971.39       0.422228       0.552065
  8971.93       0.423049       0.554127
  8972.43       0.424037       0.556653
  8972.95       0.425231       0.560028
  8973.49       0.426649       0.56375
  8973.96       0.428319       0.568268
  8974.44       0.43036       0.574136
  8974.97       0.432851       0.581276
  8975.43       0.436012       0.590743
  8975.94       0.440017       0.604113
  8976.46       0.445237       0.623094
  8976.93       0.452088       0.652488
  8977.48       0.461418       0.701434
  8977.99       0.474908       0.785476
  8978.5       0.497039       0.920552
  8979.05       0.531236        1.06862
  8979.51       0.586249        1.18956
  8980.01       0.668476        1.26382
  8980.54       0.763686        1.30287
  8981       0.83122        1.31745
  8981.52       0.842772        1.31373
  8982.04       0.816316        1.30196
  8982.51       0.782729        1.29411
  8983.06       0.760448        1.30047
  8983.57       0.7556        1.32351
  8984.06       0.765133        1.35671
  8984.62       0.783296        1.39119
  8985.09       0.805187        1.4228
  8985.62       0.828577        1.4545
  8986.15       0.8501        1.48737
  8986.61       0.872525        1.52579
  8987.14       0.8968        1.57098
  8987.65       0.922315        1.62363
  8988.13       0.947717        1.68382
  8988.68       0.973269        1.7514
  8989.17        1.00031        1.82385
  8989.67        1.03043        1.89829
  8990.21        1.06404        1.97037
  8990.68        1.10045        2.03782
  8991.18        1.13842        2.09904
  8991.7        1.17513        2.15199
  8992.16        1.20593        2.19405
  8992.68        1.22833        2.22155
  8993.19        1.24385        2.23286
  8993.66        1.25535        2.22888
  8994.2        1.26465        2.21353
  8994.7        1.27187        2.19131
  8995.19        1.27546        2.16643
  8995.73        1.27335        2.14223
  8996.2        1.26469        2.12087
  8996.68        1.25072        2.10351
  8997.2        1.23405        2.09136
  8997.66        1.2167        2.08533
  8998.15        1.20033        2.08654
  8998.67        1.18513        2.09612
  8999.13        1.17081        2.11414
  8999.65        1.15712        2.13998
  9000.17        1.14467        2.17207
  9000.64        1.13398        2.20667
  9001.17        1.12566        2.23867
  9001.66        1.11964        2.26315
  9002.12        1.11591        2.27647
  9002.65        1.11441        2.27746
  9003.12        1.11487        2.2668
  9003.6        1.11684        2.24768
  9004.14        1.11977        2.22365
  9004.6        1.12317        2.1975
  9005.11        1.12664        2.17204
  9005.65        1.13013        2.14939
  9006.12        1.13375        2.12989
  9006.65        1.13773        2.11334
  9007.16        1.14216        2.09803
  9007.62        1.147        2.08309
  9008.15        1.15201        2.06778
  9008.64        1.15679        2.0532
  9009.11        1.16084        2.04006
  9010.2        1.16505        2.02218
  9011.34        1.16278        2.02006
  9012.48        1.15832        2.02724
  9013.59        1.15568        2.03935
  9014.7        1.1516        2.05774
  9015.88        1.14102        2.08391
  9017.12        1.12383        2.11764
  9018.35        1.10649        2.15256
  9019.6        1.09383        2.18571
  9020.82        1.08525        2.21644
  9022.12        1.0773        2.24776
  9023.42        1.07069        2.2729
  9024.72        1.06584        2.28622
  9026.02        1.06277        2.28027
  9027.37        1.06082        2.25414
  9028.78        1.06016        2.21653
  9030.15        1.06133        2.17756
  9031.57        1.06535        2.14117
  9032.98        1.07218        2.11538
  9034.48        1.08059        2.09933
  9035.94        1.08856        2.09308
  9037.42        1.09639        2.09512
  9038.93        1.1044        2.10406
  9040.49        1.11319        2.11438
  9042.03        1.12274        2.11948
  9043.58        1.13196        2.11682
  9045.19        1.13863        2.11286
  9046.81        1.14038        2.11634
  9048.45        1.1363        2.13314
  9050.13        1.12992        2.14481
  9051.84        1.1246        2.14991
  9053.53        1.12188        2.15053
  9055.22        1.12075        2.15565
  9056.98        1.11985        2.1697
  9058.78        1.11788        2.1884
  9060.53        1.11511        2.20357
  9062.3        1.11264        2.21504
  9064.12        1.11193        2.22554
  9065.96        1.11273        2.23839
  9067.81        1.11451        2.25608
  9069.66        1.11688        2.27224
  9071.55        1.11907        2.27988
  9073.43        1.12075        2.27387
  9075.36        1.12192        2.2542
  9077.27        1.12236        2.22654
  9079.22        1.12227        2.196
  9081.19        1.12162        2.16971
  9083.18        1.1201        2.14698
  9085.15        1.11691        2.12807
  9087.2        1.11168        2.11754
  9089.18        1.10476        2.10926
  9091.25        1.09693        2.0918
  9093.28        1.08924        2.06857
  9095.27        1.08199        2.04719
  9097.44        1.07522        2.03463
  9099.45        1.06986        2.03605
  9101.66        1.06565        2.05018
  9103.81        1.06314        2.07246
  9106.02        1.06237        2.09695
  9108.25        1.06344        2.11869
  9110.48        1.0663        2.1341
  9112.75        1.07015        2.14204
  9115        1.07352        2.14341
  9117.3        1.07544        2.14243
  9119.59        1.07611        2.14732
  9121.91        1.0761        2.16494
  9124.28        1.07579        2.19795
  9126.66        1.07546        2.23814
  9129.04        1.07516        2.26666
  9131.46        1.0749        2.27653
  9133.78        1.07509        2.27124
  9136.25        1.07561        2.25994
  9138.72        1.07675        2.24251
  9141.14        1.07744        2.2187
  9143.66        1.07672        2.18626
  9146.15        1.07472        2.14847
  9148.7        1.07173        2.10674
  9151.15        1.06842        2.06539
  9153.72        1.06494        2.02544
  9156.31        1.06165        1.99636
  9158.92        1.05866        1.98425
  9161.52        1.05626        1.99346
  9164.09        1.05465        2.01941
  9166.74        1.0535        2.054
  9169.4        1.05258        2.08592
  9172.15        1.05152        2.10836
  9174.82        1.05044        2.11917
  9177.54        1.04938        2.12078
  9180.24        1.04836        2.11647
  9183.06        1.04714        2.11081
  9185.84        1.04575        2.10783
  9188.69        1.04396        2.10562
  9191.49        1.04206        2.10132
  9194.37        1.03987        2.09514
  9197.23        1.03753        2.09392
  9200.19        1.03487        2.10529
  9203.11        1.03217        2.12802
  9206.09        1.02929        2.14977
  9209.05        1.0263        2.15964
  9212.1        1.02319        2.15962
  9215.1        1.02026        2.15386
  9218.19        1.01745        2.14202
  9221.25        1.01503        2.12381
  9224.39        1.01294        2.0991
  9227.46        1.01127        2.07246
  9230.59        1.00972        2.04745
  9233.68        1.00824        2.02719
  9236.84        1.00694        2.01444
  9240        1.00586        2.0106
  9243.27        1.00494        2.01297
  9246.49        1.00393        2.01589
  9249.68        1.00285        2.01689
  9252.9        1.00162        2.01784
  9256.08        1.00033        2.01989
  9259.38       0.998893        2.0225
  9262.66       0.997359        2.02699
  9265.96       0.995796        2.03307
  9269.21       0.994093        2.03881
  9272.55       0.992173        2.04341
  9275.91       0.990196        2.04641
  9279.3       0.988238        2.04774
  9282.65       0.986583        2.04612
  9286.06       0.98328        2.05313
  9289.57       0.980777        2.05478
  9292.97       0.978563        2.05592
  9296.46       0.976312        2.05536
  9300.03       0.973978        2.05144
  9303.55       0.971698        2.0429
  9307.15       0.969447        2.03255
  9310.71       0.967062        2.02181
  9314.26       0.964762        2.01096
  9317.89       0.962446        2.00178
  9321.48       0.96018        1.99609
  9325.14       0.957957        1.99373
  9328.73       0.955804        1.99132
  9332.39       0.953633        1.98627
  9336.1       0.951461        1.97851
  9339.73       0.949367        1.96899
  9343.49       0.947263        1.96281
  9347.16       0.945088        1.96212
  9350.91       0.942935        1.96318
  9354.59       0.940779        1.96316
  9358.4       0.938541        1.96357
  9362.21       0.936265        1.96465
  9366.06       0.934033        1.96571
  9369.92       0.931786        1.96675
  9373.87       0.929574        1.9679
  9377.74       0.927435        1.96864
  9381.69       0.925305        1.96952
  9385.64       0.923229        1.96942
  9389.51       0.921212        1.96877
  9393.52       0.919164        1.96791
  9397.43       0.917162        1.96603
  9401.39       0.915178        1.96285
  9405.4       0.913158        1.95761
  9409.37       0.911113        1.95112
  9413.4       0.909141        1.94362
  9417.37       0.907131        1.93698
  9421.38       0.905122        1.93189
  9425.44       0.90311        1.92847
  9429.46       0.901068        1.92629
  9433.55       0.89897        1.92411
  9437.67       0.896845        1.92144
  9441.79       0.894642        1.91812
  9445.96       0.89241        1.91376
  9450.17       0.89012        1.90875
  9454.36       0.88783        1.90428
  9458.54       0.885788        1.89868
  9462.79       0.883083        1.89856
  9467.07       0.880751        1.89597
  9471.32       0.878367        1.89317
  9475.56       0.876005        1.89134
  9479.91       0.873608        1.89033
  9484.33       0.871213        1.88933
  9488.72       0.868802        1.88955
  9493.06       0.866446        1.88946
  9497.47       0.864107        1.88923
  9501.91       0.861752        1.88893
  9506.39       0.859455        1.88816
  9510.89       0.857157        1.88628
  9515.4       0.854894        1.88314
  9519.88       0.852641        1.87876
  9524.37       0.850419        1.87346
  9528.91       0.848095        1.86839
  9533.49       0.845966        1.86347
  9538.1       0.844761        1.85677
  9542.76       0.841389        1.85688
  9547.46       0.839117        1.85361
  9552.13       0.836879        1.85066
  9556.79       0.834654        1.84796
  9561.49       0.8324        1.84503
  9566.19       0.830099        1.84172
  9570.9       0.82784        1.83879
  9575.62       0.825586        1.83559
  9580.35       0.823345        1.83241
  9585.07       0.82109        1.82922
  9589.8       0.818829        1.82638
  9594.53       0.816569        1.82409
  9599.31       0.814319        1.82179
  9604.15       0.812028        1.81962
  9609       0.809775        1.81754
  9613.85       0.807599        1.81552
  9618.74       0.805216        1.81353
  9623.63       0.802915        1.81172
  9628.62       0.800561        1.80971
  9633.6       0.798231        1.80734
  9638.59       0.79588        1.80488
  9643.59       0.793528        1.80224
  9648.67       0.791113        1.7991
  9653.73       0.788688        1.79612
  9658.83       0.786295        1.79289
  9663.9       0.784057        1.78952
  9668.99       0.781678        1.78652
  9674.12       0.77921        1.78345
  9679.24       0.776769        1.78039
  9684.31       0.77439        1.7774
  9689.38       0.772046        1.77432
  9694.5       0.769683        1.77107
  9699.71       0.767306        1.76821
  9705       0.764937        1.76516
  9710.26       0.762548        1.76228
  9715.53       0.760202        1.75928
  9720.85       0.757826        1.75638
  9726.18       0.755475        1.75338
  9731.49       0.753135        1.75087
  9736.84       0.750783        1.74809
  9742.18       0.748446        1.74568
  9747.6       0.746104        1.74322
  9752.94       0.743785        1.74084
  9758.34       0.741412        1.73856
  9763.84       0.739077        1.73594
  9769.25       0.736775        1.73344
  9774.66       0.734392        1.73061
  9780.14       0.732035        1.72781
  9785.65       0.729705        1.72496
  9791.13       0.727344        1.72237
  9796.75       0.724897        1.7195
  9802.36       0.722553        1.71654
  9807.9       0.720172        1.71384
  9813.53       0.717768        1.71086
  9819.14       0.715417        1.70778
  9824.83       0.71302        1.70474
  9830.62       0.71055        1.70164
  9836.36       0.708098        1.69837