File: root/data/Cu_foil_111.xdi
# XDI/1.0 Demeter/0.9.26
# Beamline.name: BM08-LISA
# Column.1: energy eV
# Column.2: mutrans
# Element.edge: K
# Element.symbol: Cu
# Facility.name: ESRF
# Facility.xray_source: Bending magnet
# Mono.d_spacing: 3.134692
# Mono.name: Si(111)
# Mono.notes: LNT cooled
# Sample.formula: Cu
# Sample.name: Cu metal foil
# Scan.start_time: 2023-06-27T17:30:10
# ///
# room temperature
#------------------------
#   energy  mutrans
  8780.33       0.214107
  8785.11       0.213119
  8789.93       0.212275
  8794.86       0.211336
  8799.75       0.210375
  8804.65       0.209334
  8809.62       0.208329
  8814.59       0.207334
  8819.55       0.206246
  8824.54       0.205231
  8829.56       0.204207
  8834.56       0.2032
  8839.54       0.202197
  8844.53       0.201199
  8849.5       0.200211
  8854.4       0.199232
  8859.4       0.198292
  8864.37       0.197304
  8869.29       0.196339
  8874.31       0.1954
  8879.3       0.194499
  8884.26       0.193542
  8889.27       0.19261
  8894.32       0.191674
  8899.32       0.190833
  8904.36       0.189971
  8909.42       0.189116
  8914.37       0.188322
  8919.35       0.187565
  8924.37       0.186819
  8929.29       0.186174
  8934.28       0.185588
  8939.17       0.185096
  8944.04       0.184807
  8949.01       0.184702
  8953.97       0.185001
  8958.99       0.185816
  8959.22       0.185911
  8959.46       0.185972
  8959.72       0.186036
  8960       0.186147
  8960.26       0.186227
  8960.5       0.186309
  8960.73       0.186413
  8960.98       0.186507
  8961.26       0.186605
  8961.56       0.18673
  8961.79       0.186839
  8962.01       0.18696
  8962.25       0.187061
  8962.51       0.187179
  8962.78       0.187279
  8963.03       0.187374
  8963.25       0.187539
  8963.48       0.187659
  8963.72       0.187807
  8963.99       0.187957
  8964.26       0.188115
  8964.51       0.188276
  8964.76       0.188459
  8965       0.188645
  8965.26       0.18885
  8965.54       0.189049
  8965.8       0.189249
  8966.04       0.189476
  8966.27       0.189746
  8966.52       0.189996
  8966.79       0.190213
  8967.06       0.190471
  8967.3       0.190719
  8967.52       0.191033
  8967.75       0.19132
  8968.01       0.191625
  8968.28       0.191959
  8968.56       0.192368
  8968.79       0.192769
  8969.02       0.193172
  8969.26       0.193606
  8969.53       0.194101
  8969.81       0.1946
  8970.05       0.195118
  8970.28       0.195645
  8970.52       0.196174
  8970.78       0.19666
  8971.07       0.197217
  8971.33       0.197841
  8971.57       0.198536
  8971.81       0.199256
  8972.06       0.200088
  8972.34       0.200945
  8972.61       0.201919
  8972.85       0.202927
  8973.1       0.204171
  8973.33       0.205337
  8973.6       0.206675
  8973.87       0.208102
  8974.12       0.209722
  8974.35       0.211487
  8974.57       0.213461
  8974.82       0.21571
  8975.09       0.218234
  8975.36       0.221142
  8975.6       0.224501
  8975.83       0.228421
  8976.07       0.233052
  8976.34       0.238556
  8976.62       0.245223
  8976.89       0.253351
  8977.13       0.263544
  8977.36       0.276287
  8977.61       0.292659
  8977.89       0.313865
  8978.16       0.341745
  8978.43       0.381932
  8978.65       0.426821
  8978.89       0.478562
  8979.15       0.534044
  8979.42       0.589078
  8979.67       0.638517
  8979.9       0.679464
  8980.12       0.71106
  8980.37       0.734245
  8980.65       0.749998
  8980.92       0.75984
  8981.16       0.764448
  8981.39       0.764779
  8981.63       0.761709
  8981.9       0.756263
  8982.18       0.749707
  8982.45       0.743212
  8982.69       0.738188
  8982.92       0.735599
  8983.17       0.736168
  8983.46       0.740155
  8983.73       0.747446
  8983.97       0.75746
  8984.19       0.769197
  8984.43       0.782152
  8984.69       0.795218
  8984.97       0.807819
  8985.22       0.819718
  8985.47       0.832478
  8985.7       0.843604
  8985.95       0.854846
  8986.23       0.866614
  8986.5       0.879263
  8986.75       0.892932
  8986.98       0.907752
  8987.22       0.924129
  8987.49       0.941847
  8987.78       0.961123
  8988.04       0.981788
  8988.28        1.00411
  8988.52        1.02755
  8988.78        1.05208
  8989.06        1.07753
  8989.33        1.10416
  8989.57        1.13119
  8989.79        1.15856
  8990.03        1.1858
  8990.3        1.21316
  8990.58        1.2398
  8990.83        1.26572
  8991.05        1.29064
  8991.28        1.31476
  8991.54        1.33739
  8991.82        1.35854
  8992.09        1.37784
  8992.33        1.39502
  8992.56        1.40951
  8992.8        1.42117
  8993.07        1.4296
  8993.36        1.43475
  8993.61        1.43662
  8993.85        1.43546
  8994.09        1.43176
  8994.35        1.42592
  8994.63        1.41846
  8994.9        1.40989
  8995.13        1.4006
  8995.36        1.39094
  8995.6        1.38122
  8995.86        1.37156
  8996.13        1.36221
  8996.38        1.35315
  8996.61        1.34481
  8996.84        1.33709
  8997.08        1.33026
  8997.36        1.32443
  8997.63        1.31979
  8997.87        1.31638
  8998.1        1.31436
  8998.34        1.31382
  8998.6        1.31494
  8998.89        1.31771
  8999.15        1.3222
  8999.39        1.32842
  8999.62        1.33627
  8999.87        1.34563
  9000.15        1.35621
  9000.42        1.36789
  9000.66        1.38028
  9000.88        1.39288
  9001.11        1.40524
  9001.37        1.4172
  9001.64        1.42812
  9001.9        1.43755
  9002.12        1.44524
  9002.35        1.45079
  9002.58        1.45406
  9002.85        1.45502
  9003.12        1.45357
  9003.37        1.45005
  9003.59        1.44459
  9003.82        1.43755
  9004.08        1.42919
  9004.36        1.41994
  9004.63        1.41016
  9004.87        1.4002
  9005.1        1.39034
  9005.34        1.38076
  9005.6        1.37178
  9005.88        1.3634
  9006.13        1.35574
  9006.36        1.34873
  9006.58        1.34224
  9006.83        1.33622
  9007.09        1.33061
  9007.36        1.32515
  9007.6        1.31972
  9007.82        1.31424
  9008.05        1.30875
  9008.3        1.30306
  9008.58        1.29741
  9008.84        1.29177
  9009.08        1.28632
  9009.3        1.2812
  9010.43        1.26495
  9011.52        1.26073
  9012.58        1.26432
  9013.68        1.2717
  9014.83        1.28296
  9016.05        1.30022
  9017.27        1.32302
  9018.45        1.34737
  9019.67        1.37179
  9020.89        1.39453
  9022.2        1.4177
  9023.48        1.43757
  9024.77        1.44984
  9026.09        1.44865
  9027.46        1.43206
  9028.84        1.40617
  9030.18        1.37829
  9031.6        1.35033
  9033.02        1.32911
  9034.47        1.3157
  9035.9        1.30934
  9037.37        1.30919
  9038.89        1.31479
  9040.4        1.3228
  9041.93        1.32817
  9043.51        1.32773
  9045.15        1.32437
  9046.76        1.32546
  9048.39        1.33361
  9050.07        1.34374
  9051.73        1.34847
  9053.46        1.34879
  9055.23        1.35107
  9056.95        1.35955
  9058.69        1.37262
  9060.51        1.38467
  9062.36        1.39339
  9064.12        1.40073
  9065.93        1.40972
  9067.87        1.42216
  9069.68        1.43463
  9071.53        1.44209
  9073.49        1.43955
  9075.38        1.42683
  9077.26        1.40686
  9079.3        1.38361
  9081.19        1.36381
  9083.2        1.34597
  9085.22        1.33068
  9087.17        1.32156
  9089.27        1.31502
  9091.29        1.30296
  9093.37        1.28573
  9095.41        1.26859
  9097.55        1.2579
  9099.59        1.25742
  9101.78        1.26644
  9103.9        1.28163
  9106.12        1.29961
  9108.32        1.31581
  9110.57        1.32788
  9112.82        1.33477
  9115.1        1.33614
  9117.36        1.33533
  9119.67        1.33778
  9121.99        1.3488
  9124.32        1.37157
  9126.7        1.40018
  9129.09        1.42307
  9131.43        1.43253
  9133.82        1.43013
  9136.28        1.4218
  9138.64        1.40969
  9141.13        1.39286
  9143.63        1.3702
  9146.11        1.34254
  9148.64        1.31204
  9151.18        1.28119
  9153.79        1.251
  9156.32        1.22807
  9158.93        1.21707
  9161.5        1.22108
  9164.16        1.23815
  9166.81        1.26234
  9169.47        1.28612
  9172.15        1.30298
  9174.83        1.31175
  9177.54        1.31373
  9180.28        1.31073
  9183.09        1.30647
  9185.91        1.30377
  9188.77        1.30199
  9191.58        1.29899
  9194.48        1.29443
  9197.34        1.2927
  9200.29        1.29964
  9203.18        1.31478
  9206.14        1.33074
  9209.07        1.3387
  9212.09        1.33919
  9215.06        1.33528
  9218.12        1.32727
  9221.16        1.3146
  9224.25        1.29713
  9227.35        1.27766
  9230.49        1.25901
  9233.64        1.24347
  9236.79        1.23318
  9239.96        1.22915
  9243.13        1.23004
  9246.34        1.23213
  9249.56        1.23275
  9252.85        1.23321
  9256.03        1.23433
  9259.29        1.23591
  9262.52        1.23865
  9265.82        1.24263
  9269.16        1.24661
  9272.5        1.24983
  9275.82        1.25183
  9279.21        1.25326
  9282.67        1.25377
  9286.03        1.2558
  9289.49        1.2567
  9292.99        1.25729
  9296.44        1.25716
  9299.95        1.25416
  9303.54        1.24808
  9307.09        1.2406
  9310.68        1.23269
  9314.25        1.22454
  9317.82        1.21741
  9321.47        1.21276
  9325.09        1.21034
  9328.73        1.2084
  9332.35        1.2048
  9336.03        1.19902
  9339.71        1.1922
  9343.36        1.18707
  9347.14        1.18575
  9350.8        1.18626
  9354.57        1.18604
  9358.26        1.18591
  9362.13        1.18638
  9365.86        1.18687
  9369.75        1.18745
  9373.6        1.1879
  9377.49        1.18837
  9381.37        1.18867
  9385.31        1.18849
  9389.27        1.18786
  9393.2        1.18704
  9397.24        1.18564
  9401.17        1.18312
  9405.17        1.17937
  9409.27        1.1745
  9413.22        1.16903
  9417.26        1.16386
  9421.32        1.15984
  9425.29        1.15708
  9429.39        1.15508
  9433.49        1.15326
  9437.54        1.15109
  9441.75        1.14846
  9445.96        1.14521
  9450.11        1.14134
  9454.28        1.1378
  9458.5        1.13509
  9462.72        1.13308
  9466.91        1.13097
  9471.19        1.12876
  9475.49        1.12705
  9479.76        1.12588
  9484.13        1.1252
  9488.54        1.12482
  9492.93        1.1245
  9497.39        1.1241
  9501.88        1.12366
  9506.39        1.12293
  9510.88        1.12142
  9515.41        1.11901
  9519.91        1.11568
  9524.43        1.11173
  9528.95        1.10779
  9533.57        1.10421
  9538.18        1.10138
  9542.82        1.09866
  9547.49        1.09616
  9552.19        1.09377
  9556.9        1.09146
  9561.62        1.08912
  9566.32        1.08661
  9571.05        1.08415
  9575.8        1.08164
  9580.52        1.07907
  9585.26        1.07651
  9590.02        1.07424
  9594.77        1.07224
  9599.55        1.07033
  9604.35        1.06856
  9609.19        1.06682
  9614.05        1.06519
  9618.93        1.06338
  9623.83        1.06175
  9628.76        1.06009
  9633.75        1.05821
  9638.75        1.0561
  9643.77        1.05392
  9648.79        1.0516
  9653.8        1.04922
  9658.9        1.04667
  9663.95        1.04412
  9669.01        1.04157
  9674.11        1.03906
  9679.24        1.03658
  9684.41        1.03396
  9689.58        1.03142
  9694.68        1.02892
  9699.82        1.02658
  9705.06        1.0242
  9710.42        1.0218
  9715.72        1.01935
  9721.01        1.01704
  9726.35        1.01471
  9731.74        1.01241
  9737.1        1.01024
  9742.43        1.00818
  9747.86        1.00617
  9753.22        1.00422
  9758.58        1.00226
  9764.02        1.0002
  9769.5       0.99815
  9774.91       0.995944
  9780.35       0.9937
  9785.81       0.991451
  9791.26       0.989272
  9796.73       0.98707
  9802.34       0.984796
  9807.97       0.982501
  9813.57       0.980125
  9819.27       0.977713
  9824.89       0.975397
  9830.62       0.972915
  9836.37       0.970474