File: root/data/CuO_111.xdi
# XDI/1.0 Demeter/0.9.26
# Beamline.name: BM08-LISA
# Column.1: energy eV
# Column.2: mutrans
# Column.3: murefer
# Element.edge: K
# Element.symbol: Cu
# Facility.name: ESRF
# Facility.xray_source: Bending magnet
# Mono.d_spacing: 3.134692
# Mono.name: Si(111)
# Mono.notes: LNT cooled
# Sample.formula: CuO
# Sample.name: Copper(II) oxide, cupric oxide
# Sample.reference: Cu metal foil
# Scan.start_time: 2023-01-17T20:09:17
# ///
# room temperature
#------------------------
#  energy  mutrans  murefer
  8830.16        1.01078       0.589901
  8840.03        1.0048       0.58763
  8849.82       0.998944       0.585023
  8859.68       0.993101       0.582655
  8869.59       0.987274       0.580232
  8879.52       0.981409       0.577629
  8889.51       0.975632       0.575412
  8899.56       0.969867       0.573048
  8909.54       0.964212       0.570532
  8919.61       0.958663       0.568335
  8929.55       0.953271       0.565954
  8939.41       0.948192       0.564198
  8949.37       0.94351       0.563096
  8959.39       0.939799       0.56374
  8959.89       0.939671       0.564024
  8960.34       0.939541       0.564126
  8960.87       0.939451       0.56415
  8961.36       0.9393       0.564604
  8961.86       0.939195       0.564851
  8962.4       0.939117       0.56499
  8962.86       0.939041       0.565382
  8963.34       0.938968       0.565635
  8963.86       0.938889       0.565795
  8964.31       0.938836       0.566225
  8964.8       0.938787       0.566605
  8965.35       0.93874       0.566994
  8965.8       0.938731       0.567576
  8966.33       0.938733       0.567961
  8966.84       0.938749       0.568666
  8967.31       0.938791       0.569377
  8967.86       0.938859       0.569917
  8968.34       0.938944       0.570837
  8968.84       0.939063       0.571689
  8969.37       0.939324       0.573652
  8969.82       0.93947       0.575266
  8970.31       0.939593       0.576363
  8970.83       0.939788       0.57737
  8971.29       0.940044       0.579383
  8971.81       0.940408       0.581561
  8972.33       0.940827       0.584297
  8972.8       0.94133       0.58774
  8973.37       0.941974       0.591992
  8973.86       0.942709       0.59685
  8974.33       0.94357       0.602959
  8974.85       0.944655       0.610438
  8975.32       0.94611       0.62026
  8975.8       0.948052       0.633729
  8976.33       0.950935       0.65249
  8976.79       0.95479       0.680611
  8977.31       0.958652       0.726886
  8977.84       0.960988       0.805598
  8978.32       0.962522       0.928543
  8978.89       0.965776        1.08686
  8979.38       0.971266        1.21645
  8979.85       0.97897        1.29737
  8980.39       0.988665        1.33774
  8980.86        1.00064        1.35008
  8981.34        1.01601        1.34296
  8981.88        1.03723        1.32721
  8982.35        1.06789        1.31461
  8982.87        1.10968        1.31529
  8983.4        1.1597        1.3334
  8983.88        1.20847        1.36496
  8984.43        1.24509        1.40046
  8984.93        1.26557        1.433
  8985.4        1.27289        1.46337
  8985.97        1.27368        1.49699
  8986.44        1.27483        1.53281
  8986.93        1.28187        1.57496
  8987.47        1.29816        1.6234
  8987.93        1.32402        1.67856
  8988.45        1.35653        1.74041
  8988.98        1.39242        1.80865
  8989.45        1.42988        1.87927
  8990        1.4704        1.94949
  8990.49        1.51379        2.01534
  8990.96        1.55527        2.07498
  8991.5        1.58847        2.12718
  8991.97        1.61189        2.17017
  8992.45        1.62889        2.19954
  8992.98        1.64362        2.21376
  8993.45        1.65784        2.21257
  8993.95        1.6721        2.19902
  8994.49        1.68702        2.17789
  8994.96        1.70365        2.15279
  8995.5        1.72188        2.12651
  8996        1.73878        2.10234
  8996.46        1.75041        2.08295
  8996.99        1.75478        2.06847
  8997.47        1.7527        2.06075
  8997.93        1.74645        2.0601
  8998.46        1.73832        2.06716
  8998.93        1.72949        2.08233
  8999.41        1.71973        2.1055
  8999.96        1.70794        2.13593
  9000.43        1.69353        2.1704
  9000.94        1.67668        2.2041
  9001.46        1.65952        2.23151
  9001.92        1.64369        2.24935
  9002.43        1.63026        2.25485
  9002.93        1.61888        2.24867
  9003.38        1.60921        2.23362
  9003.91        1.60063        2.21242
  9004.4        1.59255        2.18873
  9004.87        1.58465        2.16482
  9005.42        1.57714        2.1432
  9005.9        1.57061        2.1242
  9006.4        1.56552        2.10797
  9006.94        1.56219        2.09298
  9007.4        1.56049        2.07864
  9007.9        1.56011        2.06391
  9008.42        1.56075        2.04915
  9008.87        1.56196        2.03567
  9009.38        1.5635        2.02472
  9010.44        1.56611        2.01101
  9011.56        1.56647        2.01189
  9012.71        1.56468        2.01976
  9013.85        1.56188        2.03252
  9014.95        1.55849        2.05124
  9016.1        1.55401        2.07788
  9017.32        1.54731        2.11056
  9018.53        1.53718        2.14415
  9019.78        1.52383        2.17616
  9021.01        1.50981        2.20637
  9022.31        1.49702        2.23623
  9023.62        1.48749        2.25897
  9024.91        1.4811        2.26899
  9026.2        1.47697        2.2594
  9027.54        1.4764        2.2316
  9028.94        1.48045        2.19393
  9030.3        1.48775        2.15593
  9031.71        1.49744        2.12112
  9033.12        1.50814        2.09691
  9034.62        1.5197        2.08194
  9036.08        1.53133        2.07604
  9037.56        1.5433        2.07831
  9039.08        1.55519        2.08701
  9040.64        1.56578        2.09636
  9042.17        1.57352        2.09993
  9043.71        1.5794        2.0961
  9045.32        1.58487        2.09232
  9046.94        1.5896        2.09492
  9048.58        1.59358        2.11152
  9050.28        1.59354        2.12262
  9051.97        1.59079        2.12685
  9053.65        1.58567        2.12821
  9055.35        1.57954        2.13456
  9057.12        1.57335        2.14964
  9058.92        1.56733        2.16781
  9060.66        1.56124        2.18222
  9062.43        1.55537        2.19348
  9064.26        1.55036        2.20383
  9066.09        1.54571        2.21745
  9067.92        1.54148        2.23493
  9069.79        1.53732        2.25061
  9071.67        1.53366        2.2571
  9073.53        1.53053        2.25007
  9075.47        1.52779        2.23031
  9077.38        1.52554        2.20342
  9079.31        1.52357        2.17388
  9081.3        1.522        2.14875
  9083.26        1.52027        2.1265
  9085.24        1.51808        2.10848
  9087.29        1.51595        2.09855
  9089.26        1.51437        2.08952
  9091.34        1.51306        2.0713
  9093.35        1.51149        2.04826
  9095.37        1.50958        2.02786
  9097.53        1.50783        2.01645
  9099.55        1.50649        2.01893
  9101.76        1.50501        2.0332
  9103.92        1.50344        2.05541
  9106.12        1.50231        2.07933
  9108.36        1.50118        2.10015
  9110.56        1.4996        2.11502
  9112.84        1.49766        2.1225
  9115.09        1.49622        2.12344
  9117.39        1.49572        2.12265
  9119.71        1.49588        2.12781
  9122.01        1.49726        2.14542
  9124.39        1.49973        2.17787
  9126.75        1.50277        2.21617
  9129.11        1.50526        2.24236
  9131.54        1.50684        2.25095
  9133.86        1.50752        2.24437
  9136.32        1.50706        2.23375
  9138.81        1.50592        2.21688
  9141.24        1.50436        2.19308
  9143.75        1.50273        2.16138
  9146.24        1.50094        2.12453
  9148.81        1.4988        2.08353
  9151.25        1.4965        2.04311
  9153.81        1.49384        2.00502
  9156.39        1.49083        1.97728
  9159.01        1.48708        1.96697
  9161.62        1.48261        1.97738
  9164.18        1.4775        2.00355
  9166.82        1.4719        2.03793
  9169.47        1.46619        2.06876
  9172.21        1.46088        2.09018
  9174.89        1.45704        2.10049
  9177.6        1.4551        2.10177
  9180.31        1.45511        2.09713
  9183.12        1.45618        2.09143
  9185.9        1.45745        2.08818
  9188.74        1.45773        2.08591
  9191.54        1.45664        2.08149
  9194.42        1.45442        2.07557
  9197.28        1.45166        2.0748
  9200.23        1.44897        2.08667
  9203.16        1.44628        2.10866
  9206.13        1.44333        2.12973
  9209.09        1.44046        2.13868
  9212.14        1.43829        2.13838
  9215.13        1.43746        2.13228
  9218.22        1.4376        2.12065
  9221.28        1.43817        2.10281
  9224.4        1.43851        2.07842
  9227.49        1.43761        2.05213
  9230.62        1.43505        2.02805
  9233.73        1.43148        2.0085
  9236.92        1.42756        1.99644
  9240.1        1.42421        1.99346
  9243.37        1.42185        1.996
  9246.59        1.42045        1.99867
  9249.76        1.41952        1.99966
  9252.96        1.41835        2.00057
  9256.15        1.41705        2.00251
  9259.46        1.41542        2.00517
  9262.75        1.41351        2.00971
  9266.04        1.41089        2.01577
  9269.3        1.40767        2.02131
  9272.67        1.40393        2.0261
  9276.04        1.40029        2.02883
  9279.44        1.39726        2.0298
  9282.81        1.39439        2.02776
  9286.28        1.39308        2.03574
  9289.78        1.39139        2.03708
  9293.2        1.38957        2.03816
  9296.74        1.38754        2.03675
  9300.26        1.38534        2.03295
  9303.79        1.38285        2.0246
  9307.39        1.38012        2.01414
  9310.9        1.3771        2.00401
  9314.48        1.37382        1.99356
  9318.08        1.37076        1.98488
  9321.67        1.36807        1.97973
  9325.34        1.366        1.97728
  9328.9        1.36419        1.97477
  9332.59        1.36233        1.96993
  9336.25        1.36027        1.96197
  9339.91        1.35794        1.95286
  9343.64        1.35521        1.94716
  9347.32        1.35225        1.94677
  9351.07        1.3493        1.94789
  9354.75        1.3466        1.94796
  9358.58        1.34448        1.94809
  9362.38        1.34285        1.94934
  9366.22        1.3417        1.95017
  9370.08        1.3406        1.95122
  9374.01        1.33946        1.95233
  9377.92        1.33787        1.95311
  9381.84        1.33587        1.95383
  9385.8        1.33361        1.95398
  9389.67        1.3311        1.95325
  9393.68        1.32825        1.95236
  9397.6        1.3252        1.95086
  9401.52        1.32207        1.94735
  9405.56        1.31895        1.94245
  9409.51        1.31601        1.93588
  9413.53        1.31342        1.92864
  9417.55        1.31095        1.92249
  9421.54        1.30844        1.91742
  9425.61        1.30561        1.91448
  9429.65        1.30254        1.9122
  9433.72        1.29938        1.91029
  9437.85        1.29645        1.90773
  9441.99        1.2937        1.90449
  9446.13        1.29114        1.90001
  9450.34        1.28867        1.89542
  9454.54        1.28633        1.89065
  9458.72        1.28374        1.88521
  9462.95        1.28182        1.88552
  9467.26        1.27981        1.8828
  9471.56        1.2779        1.88022
  9475.77        1.27591        1.8784
  9480.09        1.2737        1.87711
  9484.51        1.27115        1.87663
  9488.89        1.2684        1.87672
  9493.23        1.26553        1.87667
  9497.61        1.2627        1.87684
  9502.02        1.25996        1.87648
  9506.48        1.25747        1.87561
  9510.96        1.25504        1.87378
  9515.46        1.25242        1.87063
  9519.94        1.2496        1.86656
  9524.45        1.2467        1.86111
  9528.95        1.24379        1.85601
  9533.52        1.24094        1.85145
  9538.11        1.23835        1.84271
  9542.75        1.23586        1.84497
  9547.42        1.23343        1.84209
  9552.09        1.23087        1.83904
  9556.75        1.22832        1.83644
  9561.44        1.22575        1.8335
  9566.15        1.22313        1.83054
  9570.85        1.22064        1.82767
  9575.57        1.21817        1.82443
  9580.27        1.2157        1.82121
  9585.01        1.21323        1.81817
  9589.76        1.2105        1.81537
  9594.52        1.20763        1.81318
  9599.32        1.20468        1.81102
  9604.18        1.20162        1.80887
  9609.06        1.19874        1.80687
  9613.93        1.19596        1.80483
  9618.83        1.19312        1.80289
  9623.73        1.19029        1.80129
  9628.71        1.18742        1.7992
  9633.71        1.18453        1.79689
  9638.69        1.18167        1.79476
  9643.68        1.1789        1.79201
  9648.75        1.17612        1.78912
  9653.81        1.17335        1.78619
  9658.9        1.17064        1.78273
  9664        1.16816        1.7795
  9669.08        1.16547        1.77645
  9674.19        1.16279        1.77334
  9679.28        1.16009        1.7704
  9684.35        1.15744        1.7675
  9689.43        1.15474        1.76428
  9694.56        1.15214        1.76132
  9699.77        1.14953        1.75832
  9705.07        1.14682        1.75544
  9710.34        1.14409        1.75266
  9715.61        1.14128        1.74956
  9720.94        1.13843        1.74684
  9726.29        1.13554        1.74399
  9731.61        1.1326        1.74135
  9736.99        1.12962        1.73874
  9742.37        1.12674        1.73631
  9747.79        1.12375        1.7338
  9753.13        1.12073        1.73161
  9758.55        1.11776        1.72932
  9764.05        1.11478        1.72676
  9769.43        1.11192        1.72458
  9774.84        1.109        1.72154
  9780.33        1.10614        1.71872
  9785.79        1.10327        1.71612
  9791.26        1.10051        1.71344
  9796.88        1.09768        1.71068
  9802.46        1.09482        1.70796
  9807.99        1.09204        1.70515
  9813.63        1.08926        1.70246
  9819.22        1.08647        1.69929
  9824.93        1.08361        1.69634
  9830.68        1.0807        1.69328
  9836.41        1.07781        1.69011