File: root/data/Fe2O3_111.xdi
# XDI/1.0 Demeter/0.9.26
# Beamline.name: BM08-LISA
# Column.1: energy eV
# Column.2: mutrans
# Column.3: murefer
# Element.edge: K
# Element.symbol: Fe
# Facility.name: ESRF
# Facility.xray_source: Bending magnet
# Mono.d_spacing: 3.134692
# Mono.name: Si(111)
# Mono.notes: LNT cooled
# Sample.formula: Fe2O3
# Sample.name: Iron(III) oxide, ferric oxide
# Sample.reference: Fe metal foil
# Scan.start_time: 2021-07-14T08:49:39
# ///
# room temperature
#------------------------
#  energy  mutrans  murefer
  7012.45        1.76442       -1.58369
  7017.37        1.76112       -1.58619
  7022.22        1.75787       -1.58876
  7027.13        1.75415       -1.59085
  7032.07        1.75097       -1.59334
  7037.05        1.74814       -1.59646
  7042.06        1.74488       -1.59891
  7047.09        1.74163       -1.6014
  7052.06        1.73851       -1.60378
  7057.06        1.73546       -1.60626
  7061.97        1.7325       -1.60858
  7066.96        1.72957       -1.61091
  7071.85        1.72677       -1.61305
  7076.79        1.72411       -1.61517
  7081.72        1.72167       -1.61703
  7086.77        1.71948       -1.61873
  7091.79        1.7178       -1.61998
  7092.06        1.7177       -1.62001
  7092.35        1.71763       -1.62013
  7092.69        1.71755       -1.62012
  7092.96        1.71744       -1.62016
  7093.26        1.71742       -1.62023
  7093.59        1.71734       -1.62028
  7093.86        1.7173       -1.62025
  7094.17        1.71718       -1.62021
  7094.48        1.71713       -1.62018
  7094.73        1.71712       -1.62035
  7095.06        1.71706       -1.62038
  7095.36        1.71702       -1.6203
  7095.62        1.71697       -1.62037
  7095.96        1.71697       -1.62039
  7096.25        1.71695       -1.62036
  7096.53        1.71686       -1.62035
  7096.88        1.71685       -1.62034
  7097.16        1.71684       -1.6203
  7097.45        1.71682       -1.62028
  7097.78        1.71685       -1.62025
  7098.05        1.71681       -1.62021
  7098.34        1.71687       -1.62019
  7098.66        1.71686       -1.62009
  7098.92        1.71684       -1.61999
  7099.23        1.71689       -1.62004
  7099.55        1.71692       -1.61988
  7099.81        1.7169       -1.6198
  7100.14        1.71697       -1.6197
  7100.45        1.71703       -1.61955
  7100.71        1.71705       -1.61944
  7101.04        1.71711       -1.61928
  7101.32        1.7172       -1.61916
  7101.6        1.71725       -1.61891
  7101.93        1.71737       -1.61876
  7102.2        1.71747       -1.61862
  7102.48        1.71756       -1.6183
  7102.8        1.71766       -1.61807
  7103.09        1.71777       -1.61785
  7103.38        1.71796       -1.61755
  7103.71        1.71809       -1.6172
  7103.99        1.71828       -1.61681
  7104.27        1.71844       -1.61646
  7104.6        1.71864       -1.616
  7104.87        1.71883       -1.61555
  7105.15        1.71907       -1.61507
  7105.48        1.71933       -1.61448
  7105.74        1.71961       -1.61384
  7106.05        1.71997       -1.6132
  7106.38        1.7203       -1.61236
  7106.64        1.72065       -1.61147
  7106.96        1.72106       -1.61043
  7107.27        1.72147       -1.60925
  7107.54        1.72198       -1.60793
  7107.86        1.72246       -1.60643
  7108.16        1.72301       -1.6045
  7108.43        1.72366       -1.60225
  7108.75        1.72434       -1.5997
  7109.04        1.72518       -1.59635
  7109.31        1.72606       -1.59253
  7109.65        1.72712       -1.58728
  7109.94        1.72842       -1.58058
  7110.21        1.72988       -1.57211
  7110.56        1.73161       -1.5599
  7110.82        1.73366       -1.54383
  7111.12        1.73624       -1.52023
  7111.44        1.73933       -1.49105
  7111.71        1.74357       -1.45332
  7111.99        1.74894       -1.41548
  7112.32        1.75694       -1.37767
  7112.59        1.76831       -1.34486
  7112.89        1.78206       -1.31852
  7113.22        1.79733       -1.29431
  7113.48        1.8088       -1.27411
  7113.8        1.81752       -1.25478
  7114.11        1.8262       -1.23758
  7114.38        1.83748       -1.2206
  7114.69        1.84545       -1.20617
  7115        1.84635       -1.1938
  7115.27        1.84216       -1.18515
  7115.59        1.84053       -1.18202
  7115.89        1.83914       -1.17787
  7116.15        1.83798       -1.17313
  7116.49        1.83913       -1.16933
  7116.77        1.84109       -1.16472
  7117.05        1.84444       -1.15788
  7117.38        1.84802       -1.1488
  7117.67        1.8514       -1.13551
  7117.93        1.85416       -1.11907
  7118.27        1.85718       -1.09812
  7118.53        1.86088       -1.07514
  7118.82        1.86619       -1.04909
  7119.14        1.87311       -1.0231
  7119.41        1.88302      -0.994503
  7119.69        1.89532      -0.966425
  7120.03        1.91187      -0.935734
  7120.3        1.93155      -0.905505
  7120.6        1.95736      -0.872427
  7120.94        1.98904      -0.838561
  7121.2        2.02503      -0.806833
  7121.51        2.07052      -0.774236
  7121.82        2.12144      -0.743917
  7122.09        2.18533      -0.712735
  7122.39        2.25595      -0.683408
  7122.71        2.34144      -0.651817
  7122.97        2.42969      -0.621337
  7123.3        2.52779      -0.587849
  7123.6        2.61815      -0.556465
  7123.89        2.70724      -0.523361
  7124.22        2.78328      -0.493283
  7124.52        2.85584      -0.463076
  7124.79        2.92138      -0.434881
  7125.13        2.99015      -0.404502
  7125.4        3.05708      -0.373826
  7125.67        3.12735      -0.341203
  7126.02        3.20544      -0.302931
  7126.29        3.28081      -0.262828
  7126.59        3.36193      -0.216531
  7126.92        3.43648      -0.169308
  7127.2        3.51048      -0.11732
  7127.5        3.57365      -0.0678642
  7127.84        3.63338      -0.0159706
  7128.1        3.68408       0.0323487
  7128.43        3.73305       0.0830471
  7128.73        3.77438       0.129485
  7129.01        3.81342       0.177061
  7129.32        3.84392       0.216896
  7129.64        3.86911       0.254247
  7129.9        3.88502       0.280915
  7130.24        3.89568       0.301839
  7130.53        3.90111       0.315365
  7130.82        3.90404       0.325589
  7131.16        3.90641       0.331481
  7131.44        3.90943       0.337028
  7131.73        3.91481       0.34166
  7132.06        3.92169       0.346731
  7132.34        3.93099       0.35188
  7132.62        3.9404       0.356675
  7132.97        3.94967       0.360265
  7133.23        3.95654       0.361445
  7133.55        3.96083       0.358926
  7133.87        3.96224       0.352809
  7134.15        3.96028       0.342511
  7134.47        3.95507       0.328864
  7134.78        3.94718       0.312699
  7135.06        3.93626       0.293055
  7135.37        3.92407       0.273889
  7135.68        3.91049       0.253012
  7135.94        3.89733       0.23418
  7136.28        3.88405       0.215741
  7136.56        3.87212       0.201055
  7136.83        3.86128       0.188033
  7137.18        3.85081       0.177019
  7137.46        3.8422       0.167257
  7137.76        3.83323       0.15995
  7138.1        3.82463       0.15246
  7138.39        3.81475       0.145241
  7138.68        3.80443       0.137842
  7139.01        3.79354       0.130272
  7139.29        3.78038       0.121592
  7139.58        3.7671       0.11318
  7139.92        3.75224       0.104389
  7140.19        3.73777       0.095034
  7140.51        3.72244       0.085297
  7140.83        3.70753       0.0764903
  7141.1        3.69286       0.0669204
  7141.44        3.67766       0.0573994
  7141.74        3.6641       0.048157
  7142.03        3.65038       0.0386722
  7142.36        3.63824       0.0301214
  7142.64        3.62706       0.0209483
  7142.93        3.61624       0.0122838
  7143.25        3.60693       0.00484867
  7143.54        3.59824      -0.00261154
  7143.83        3.59142      -0.00833159
  7144.16        3.58588      -0.013249
  7144.45        3.58136      -0.0171924
  7144.75        3.57813      -0.019596
  7145.1        3.57655      -0.0206019
  7145.37        3.57602      -0.0207236
  7145.67        3.57631      -0.0194713
  7146.01        3.57728      -0.0173917
  7146.27        3.5786      -0.0143298
  7146.58        3.57999      -0.0106211
  7146.9        3.58124      -0.00603759
  7147.17        3.58199      -0.00178031
  7147.51        3.58189       0.00256813
  7147.81        3.58048       0.00670808
  7148.08        3.57784       0.00997799
  7148.43        3.57331       0.0125046
  7148.71        3.5681       0.0138577
  7148.99        3.56152       0.0142584
  7149.34        3.55365       0.0144228
  7149.6        3.54554       0.0128428
  7149.9        3.53625       0.0112764
  7150.22        3.52682       0.00878859
  7150.49        3.51738       0.00621888
  7150.79        3.50718       0.00277484
  7151.12        3.4977      -0.000457322
  7151.39        3.48818      -0.00323081
  7151.71        3.47863      -0.00645349
  7152.98        3.44397      -0.0177908
  7154.2        3.41299      -0.030748
  7155.53        3.38101      -0.0480301
  7156.78        3.34785      -0.0678474
  7158.12        3.31669      -0.0852066
  7159.43        3.2946      -0.0953489
  7160.82        3.28556      -0.100094
  7162.18        3.28688      -0.102285
  7163.56        3.29621      -0.104106
  7164.99        3.31064      -0.104271
  7166.42        3.32773      -0.102684
  7167.89        3.34679      -0.0983505
  7169.38        3.37245      -0.0918086
  7170.83        3.40798      -0.081842
  7172.34        3.45242      -0.0709834
  7173.9        3.50333      -0.0580584
  7175.45        3.55056      -0.0468358
  7177        3.5812      -0.0449327
  7178.54        3.59822      -0.0477354
  7180.17        3.60795      -0.0500264
  7181.82        3.61068      -0.0497063
  7183.49        3.60839      -0.0483748
  7185.18        3.60262      -0.0459194
  7186.9        3.59604      -0.0384352
  7188.65        3.59065      -0.0278585
  7190.4        3.58553      -0.0148182
  7192.19        3.57827      -0.00224341
  7193.97        3.56745       0.00291809
  7195.76        3.55451      -0.00423267
  7197.55        3.54129      -0.0220141
  7199.36        3.52879      -0.0467226
  7201.2        3.51472      -0.0756374
  7203.06        3.49875      -0.107748
  7204.97        3.48282      -0.140558
  7206.89        3.47091      -0.164189
  7208.81        3.46302      -0.170731
  7210.72        3.45755      -0.154186
  7212.65        3.45379      -0.115155
  7214.59        3.45297      -0.063709
  7216.57        3.45601      -0.0130273
  7218.59        3.46273       0.027172
  7220.58        3.47056       0.0487465
  7222.63        3.47537       0.0455337
  7224.72        3.47616       0.0195372
  7226.8        3.4743      -0.0213734
  7228.88        3.4693      -0.0682642
  7230.99        3.46204      -0.115639
  7233.08        3.45626      -0.158901
  7235.23        3.45475      -0.19042
  7237.41        3.45616      -0.207781
  7239.61        3.45788      -0.212495
  7241.84        3.45784      -0.207196
  7244.08        3.45325      -0.196702
  7246.33        3.44411      -0.186699
  7248.63        3.43448      -0.181229
  7250.9        3.4277      -0.183326
  7253.26        3.42414      -0.192167
  7255.56        3.42432      -0.202033
  7257.94        3.42903      -0.20351
  7260.34        3.43772      -0.194488
  7262.69        3.44626      -0.181163
  7265.12        3.45336      -0.171203
  7267.55        3.45858      -0.162401
  7269.95        3.46003      -0.15116
  7272.4        3.45828      -0.136398
  7274.92        3.45848      -0.123032
  7277.43        3.46314      -0.114415
  7279.98        3.46841      -0.106413
  7282.52        3.47034      -0.0958034
  7285.12        3.46948      -0.0850063
  7287.74        3.46582      -0.0787185
  7290.41        3.45988      -0.0848127
  7293.04        3.45377      -0.10782
  7295.71        3.44711      -0.140763
  7298.41        3.44048      -0.175684
  7301.14        3.43117      -0.206373
  7303.82        3.41965      -0.231784
  7306.53        3.40706      -0.251365
  7309.26        3.3951      -0.264996
  7312.01        3.38325      -0.272173
  7314.75        3.37079      -0.278012
  7317.53        3.35829      -0.285352
  7320.36        3.34895      -0.291601
  7323.2        3.34508      -0.29505
  7326.09        3.34579      -0.29421
  7329.01        3.35425      -0.29356
  7331.94        3.36533      -0.295104
  7334.85        3.37386      -0.29701
  7337.8        3.38613      -0.300533
  7340.77        3.3945      -0.297485
  7343.79        3.39945      -0.287724
  7346.76        3.39978      -0.272232
  7349.79        3.3955      -0.257009
  7352.87        3.38834      -0.245073
  7355.87        3.38167      -0.235366
  7358.85        3.37518      -0.226853
  7361.92        3.36749      -0.221038
  7364.98        3.35898      -0.219562
  7368.02        3.34975      -0.225277
  7371.16        3.3397      -0.23936
  7374.31        3.33092      -0.262699
  7377.44        3.32509      -0.293773
  7380.64        3.32099      -0.329632
  7383.8        3.31715      -0.360041
  7387.07        3.31283      -0.377244
  7390.28        3.30862      -0.381849
  7393.62        3.30581      -0.379139
  7396.89        3.30629      -0.374159
  7400.23        3.3102      -0.371857
  7403.52        3.31577      -0.371486
  7406.83        3.32032      -0.369959
  7410.18        3.32495      -0.369348
  7413.48        3.32762      -0.369188
  7416.81        3.3267      -0.370444
  7420.14        3.32378      -0.374928
  7423.57        3.3185      -0.383433
  7427.03        3.31098      -0.394048
  7430.47        3.30228      -0.400631
  7433.98        3.29293      -0.404336
  7437.5        3.283      -0.405896
  7440.95        3.27286      -0.403618
  7444.48        3.263      -0.39825
  7448.05        3.25531      -0.393507
  7451.65        3.24972      -0.391317
  7455.25        3.24629      -0.393023
  7458.9        3.24517      -0.395689
  7462.55        3.24511      -0.399692
  7466.19        3.24494      -0.407835
  7469.83        3.24309      -0.417705
  7473.52        3.24418      -0.430376
  7477.18        3.24452      -0.440055
  7480.83        3.24414      -0.448012
  7484.54        3.24246      -0.457365
  7488.29        3.23939      -0.468278
  7492.09        3.23521      -0.479029
  7495.92        3.23048      -0.486313
  7499.74        3.22569      -0.489147
  7503.58        3.22134      -0.489858
  7507.45        3.21698      -0.491074
  7511.33        3.21219      -0.493854
  7515.24        3.20735      -0.498653
  7519.18        3.20295      -0.503414
  7523.12        3.19943      -0.507179
  7527.06        3.19603      -0.509392
  7531.04        3.19228      -0.510987
  7535.05        3.18832      -0.513489
  7539.03        3.18474      -0.517466
  7543.06        3.18163      -0.522236
  7547.12        3.17857      -0.526339
  7551.23        3.17555      -0.529554
  7555.3        3.17216      -0.529963
  7559.35        3.16852      -0.529366
  7563.49        3.16439      -0.529378
  7567.6        3.16044      -0.532167
  7571.72        3.15683      -0.537701
  7575.9        3.15306      -0.546429
  7580.04        3.14867      -0.55634
  7584.23        3.14443      -0.565911
  7588.44        3.14031      -0.573254
  7592.65        3.13587      -0.578456
  7596.92        3.13116      -0.581901
  7601.33        3.1262      -0.585388
  7605.61        3.12138      -0.589732
  7609.97        3.11705      -0.595391
  7614.28        3.11342      -0.601196
  7618.59        3.11038      -0.604964
  7623        3.10607      -0.605107
  7627.34        3.09928      -0.60302
  7631.77        3.09723      -0.607594
  7636.15        3.10203      -0.62148
  7640.61        3.09546      -0.627789
  7645.09        3.0894      -0.634571
  7649.61        3.08388      -0.640299
  7654.16        3.07886      -0.644733
  7658.79        3.07447      -0.648517
  7663.42        3.07032      -0.651323
  7668.11        3.06565      -0.653335
  7672.82        3.06131      -0.655213
  7677.39        3.05781      -0.657254
  7682.06        3.05433      -0.659463
  7686.74        3.05083      -0.66293
  7691.43        3.04666      -0.667201
  7696.21        3.04466      -0.673609
  7700.94        3.04156      -0.678513
  7705.66        3.03815      -0.683332
  7710.5        3.03145      -0.685871
  7715.39        3.03136      -0.695144
  7720.33        3.02671      -0.700951
  7725.23        3.02203      -0.706025
  7730.06        3.01723      -0.710256
  7734.94        3.01245      -0.714304
  7739.89        3.00754      -0.718392
  7744.79        3.00154      -0.722037
  7749.63        2.99824      -0.727499
  7754.49        2.99342      -0.731551
  7759.46        2.9884      -0.736219
  7764.43        2.98337      -0.741215
  7769.39        2.97847      -0.746808
  7774.36        2.97383      -0.752062
  7779.41        2.96963      -0.756787
  7784.47        2.96573      -0.761225
  7789.58        2.96173      -0.765459
  7794.68        2.95796      -0.769369
  7799.79        2.95385      -0.773207
  7804.92        2.94978      -0.776687
  7810.09        2.9456      -0.779961
  7815.29        2.92991      -0.773481
  7820.53        2.93717      -0.78742
  7825.78        2.93291      -0.791594
  7831.05        2.92845      -0.795521
  7836.39        2.92395      -0.799561
  7841.71        2.91957      -0.803777
  7847.05        2.91504      -0.808308
  7852.38        2.91036      -0.812706
  7857.69        2.90573      -0.817114
  7863.01        2.90099      -0.821967
  7868.35        2.89615      -0.826824
  7873.8        2.89145      -0.831681
  7879.26        2.88505      -0.834831
  7884.71        2.88262      -0.8412
  7890.18        2.87834      -0.84573
  7895.66        2.87384      -0.850039
  7901.23        2.8694      -0.854385
  7906.79        2.8641      -0.85824
  7912.28        2.86105      -0.863735
  7917.73        2.85632      -0.867683
  7923.2        2.85197      -0.872008
  7928.71        2.84742      -0.876124
  7934.31        2.84277      -0.88025
  7939.91        2.8343      -0.880154
  7945.57        2.83364      -0.887438
  7951.22        2.82918      -0.891343
  7956.9        2.82477      -0.895165
  7962.62        2.82015      -0.899102
  7968.32        2.8155      -0.903098
  7973.93        2.8108      -0.906774