File: root/data/Fe_foil_311.xdi
# XDI/1.0 Demeter/0.9.26
# Beamline.name: BM08-LISA
# Column.1: energy eV
# Column.2: mutrans
# Element.edge: K
# Element.symbol: Fe
# Facility.name: ESRF
# Facility.xray_source: Bending magnet
# Mono.d_spacing: 1.637039
# Mono.name: Si(311)
# Mono.notes: LNT cooled
# Sample.formula: Fe
# Sample.name: Fe metal foil
# Scan.start_time: 2023-10-03T19:47:09
# ///
# room temperature
#------------------------
#   energy  mutrans
  6912.06       -1.5227
  6916.97       -1.52407
  6921.91       -1.52618
  6926.84       -1.52766
  6931.8       -1.52919
  6936.78       -1.53061
  6941.72       -1.53205
  6946.72       -1.53358
  6951.79       -1.53496
  6956.79       -1.53641
  6961.75       -1.5379
  6966.74       -1.5394
  6971.74       -1.54064
  6976.77       -1.54211
  6981.79       -1.5436
  6986.78       -1.54507
  6991.77       -1.5464
  6996.78       -1.5478
  7001.73       -1.54925
  7006.74       -1.55072
  7011.78       -1.5521
  7016.84       -1.55339
  7021.9       -1.5551
  7026.92       -1.55619
  7031.94       -1.55771
  7037.04       -1.55868
  7042.06       -1.56024
  7047.03       -1.56143
  7052.06       -1.56296
  7057.05       -1.56409
  7062.07       -1.56536
  7067.04       -1.56638
  7071.96       -1.56737
  7076.92       -1.56833
  7081.89       -1.56901
  7086.87       -1.56962
  7091.82       -1.56958
  7092.02       -1.56945
  7092.21       -1.56963
  7092.41       -1.56964
  7092.6       -1.56954
  7092.8       -1.56955
  7093       -1.56952
  7093.2       -1.56953
  7093.4       -1.56953
  7093.6       -1.56949
  7093.8       -1.56949
  7094       -1.56937
  7094.19       -1.56941
  7094.4       -1.5694
  7094.59       -1.56941
  7094.8       -1.56923
  7094.99       -1.56925
  7095.2       -1.56914
  7095.4       -1.56921
  7095.6       -1.56895
  7095.8       -1.56907
  7096       -1.56894
  7096.19       -1.56895
  7096.41       -1.5689
  7096.6       -1.56874
  7096.81       -1.56888
  7097       -1.5689
  7097.21       -1.56875
  7097.4       -1.56858
  7097.61       -1.56848
  7097.8       -1.56845
  7098.01       -1.56842
  7098.21       -1.56833
  7098.42       -1.56827
  7098.61       -1.56832
  7098.82       -1.56823
  7099.01       -1.56806
  7099.22       -1.56796
  7099.41       -1.5678
  7099.62       -1.56769
  7099.82       -1.56756
  7100.02       -1.56741
  7100.22       -1.56736
  7100.43       -1.56717
  7100.62       -1.56709
  7100.83       -1.56682
  7101.02       -1.56673
  7101.23       -1.56658
  7101.42       -1.5665
  7101.62       -1.56641
  7101.81       -1.56617
  7102.02       -1.56597
  7102.2       -1.5658
  7102.41       -1.56561
  7102.6       -1.56548
  7102.81       -1.56515
  7103       -1.56501
  7103.21       -1.56474
  7103.4       -1.56453
  7103.6       -1.56429
  7103.79       -1.56404
  7104       -1.56381
  7104.19       -1.5634
  7104.4       -1.56303
  7104.59       -1.56276
  7104.79       -1.56234
  7104.98       -1.56206
  7105.19       -1.56171
  7105.38       -1.56115
  7105.58       -1.56084
  7105.78       -1.56047
  7105.98       -1.55966
  7106.18       -1.55948
  7106.38       -1.55857
  7106.57       -1.55806
  7106.77       -1.55738
  7106.97       -1.5567
  7107.17       -1.55583
  7107.37       -1.555
  7107.57       -1.55406
  7107.77       -1.55318
  7107.96       -1.55207
  7108.16       -1.55078
  7108.35       -1.54943
  7108.55       -1.54791
  7108.75       -1.54612
  7108.95       -1.54422
  7109.15       -1.54189
  7109.35       -1.53931
  7109.54       -1.53632
  7109.74       -1.53264
  7109.93       -1.52825
  7110.14       -1.52252
  7110.33       -1.51565
  7110.54       -1.50629
  7110.73       -1.49427
  7110.94       -1.47775
  7111.12       -1.457
  7111.32       -1.43126
  7111.52       -1.40106
  7111.71       -1.37148
  7111.91       -1.34288
  7112.11       -1.31856
  7112.31       -1.29722
  7112.51       -1.28004
  7112.7       -1.26479
  7112.9       -1.25148
  7113.09       -1.23883
  7113.29       -1.22628
  7113.48       -1.21467
  7113.69       -1.20263
  7113.88       -1.1914
  7114.08       -1.18042
  7114.28       -1.16983
  7114.47       -1.16052
  7114.67       -1.15176
  7114.87       -1.14467
  7115.07       -1.13791
  7115.27       -1.13305
  7115.47       -1.12889
  7115.67       -1.12558
  7115.86       -1.12327
  7116.07       -1.12129
  7116.26       -1.11964
  7116.46       -1.11773
  7116.66       -1.11511
  7116.87       -1.11152
  7117.07       -1.10614
  7117.28       -1.09907
  7117.47       -1.08994
  7117.68       -1.07811
  7117.87       -1.06401
  7118.08       -1.04823
  7118.27       -1.03014
  7118.49       -1.01164
  7118.68      -0.99246
  7118.89      -0.973933
  7119.07      -0.955263
  7119.29      -0.935797
  7119.47      -0.916178
  7119.69      -0.895181
  7119.88      -0.874159
  7120.09      -0.85271
  7120.28      -0.830221
  7120.49      -0.808548
  7120.68      -0.786866
  7120.89      -0.764311
  7121.08      -0.743385
  7121.29      -0.72333
  7121.49      -0.703747
  7121.7      -0.686084
  7121.88      -0.669974
  7122.1      -0.65426
  7122.28      -0.640391
  7122.5      -0.626793
  7122.68      -0.614053
  7122.89      -0.602354
  7123.09      -0.589994
  7123.3      -0.578867
  7123.49      -0.567837
  7123.7      -0.557414
  7123.88      -0.546848
  7124.09      -0.536658
  7124.28      -0.526327
  7124.49      -0.51688
  7124.68      -0.506773
  7124.9      -0.497323
  7125.08      -0.487761
  7125.29      -0.478644
  7125.48      -0.469585
  7125.68      -0.460637
  7125.87      -0.451988
  7126.08      -0.443319
  7126.28      -0.434584
  7126.48      -0.425867
  7126.67      -0.416944
  7126.88      -0.408226
  7127.07      -0.398577
  7127.27      -0.388991
  7127.47      -0.378407
  7127.68      -0.367609
  7127.87      -0.356091
  7128.08      -0.344424
  7128.27      -0.332581
  7128.47      -0.320604
  7128.65      -0.308526
  7128.86      -0.296686
  7129.05      -0.284254
  7129.26      -0.272385
  7129.45      -0.260622
  7129.66      -0.249124
  7129.84      -0.239844
  7130.05      -0.231451
  7130.24      -0.223116
  7130.44      -0.216227
  7130.63      -0.210594
  7130.84      -0.205924
  7131.03      -0.203997
  7131.23      -0.203628
  7131.42      -0.205269
  7131.63      -0.208536
  7131.81      -0.214102
  7132.02      -0.220204
  7132.2      -0.227819
  7132.42      -0.237228
  7132.61      -0.2468
  7132.82      -0.256746
  7133      -0.267586
  7133.22      -0.278062
  7133.4      -0.288027
  7133.61      -0.298099
  7133.8      -0.308043
  7134.01      -0.318531
  7134.2      -0.327016
  7134.41      -0.335198
  7134.59      -0.342413
  7134.8      -0.348775
  7134.99      -0.356389
  7135.2      -0.362572
  7135.38      -0.367853
  7135.6      -0.372953
  7135.79      -0.377294
  7136      -0.380773
  7136.18      -0.383341
  7136.4      -0.385504
  7136.58      -0.387094
  7136.79      -0.388469
  7136.97      -0.388925
  7137.18      -0.389262
  7137.38      -0.38855
  7137.59      -0.387106
  7137.77      -0.386151
  7137.98      -0.384509
  7138.17      -0.381788
  7138.38      -0.378897
  7138.56      -0.376092
  7138.77      -0.373167
  7138.96      -0.369232
  7139.18      -0.365754
  7139.36      -0.362608
  7139.57      -0.359861
  7139.75      -0.356343
  7139.96      -0.353002
  7140.15      -0.349913
  7140.36      -0.347447
  7140.55      -0.344766
  7140.76      -0.343055
  7140.95      -0.341289
  7141.16      -0.339862
  7141.35      -0.3393
  7141.56      -0.338789
  7141.56      -0.338743
  7142.63      -0.342
  7143.7      -0.350413
  7144.81      -0.355494
  7145.95      -0.350529
  7147.12      -0.333723
  7148.3      -0.309578
  7149.47      -0.288525
  7150.68      -0.275102
  7151.9      -0.267514
  7153.14      -0.261842
  7154.38      -0.261546
  7155.65      -0.266757
  7156.95      -0.274004
  7158.29      -0.278421
  7159.63      -0.279253
  7160.98      -0.279676
  7162.38      -0.283376
  7163.8      -0.289029
  7165.26      -0.29489
  7166.74      -0.299472
  7168.21      -0.302711
  7169.71      -0.306916
  7171.23      -0.315029
  7172.75      -0.328006
  7174.29      -0.345614
  7175.83      -0.365296
  7177.39      -0.385571
  7178.98      -0.400708
  7180.6      -0.408142
  7182.23      -0.406968
  7183.89      -0.401672
  7185.56      -0.389926
  7187.26      -0.373144
  7188.98      -0.353458
  7190.71      -0.33283
  7192.48      -0.311329
  7194.25      -0.29918
  7196.03      -0.302239
  7197.85      -0.317173
  7199.67      -0.338942
  7201.52      -0.365032
  7203.36      -0.392505
  7205.24      -0.419858
  7207.13      -0.43627
  7209.03      -0.433566
  7210.97      -0.40486
  7212.95      -0.351287
  7214.93      -0.287211
  7216.91      -0.229625
  7218.89      -0.189787
  7220.89      -0.174277
  7222.92      -0.187836
  7224.98      -0.224806
  7227.08      -0.274747
  7229.23      -0.328476
  7231.38      -0.380585
  7233.53      -0.425373
  7235.73      -0.457474
  7237.95      -0.472948
  7240.18      -0.474245
  7242.44      -0.463254
  7244.69      -0.445835
  7246.97      -0.428392
  7249.25      -0.418951
  7251.56      -0.420318
  7253.87      -0.430641
  7256.24      -0.439293
  7258.65      -0.438676
  7261.08      -0.428762
  7263.48      -0.418482
  7265.89      -0.410466
  7268.28      -0.402327
  7270.72      -0.385968
  7273.2      -0.365977
  7275.7      -0.353967
  7278.2      -0.347306
  7280.73      -0.338351
  7283.27      -0.324906
  7285.86      -0.311618
  7288.44      -0.305379
  7291.06      -0.315325
  7293.66      -0.343378
  7296.25      -0.378552
  7298.86      -0.411352
  7301.53      -0.438078
  7304.21      -0.458555
  7306.89      -0.472155
  7309.6      -0.478397
  7312.33      -0.478843
  7315.08      -0.478662
  7317.83      -0.47978
  7320.63      -0.481857
  7323.45      -0.482855
  7326.32      -0.483771
  7329.19      -0.485056
  7332.08      -0.490557
  7334.97      -0.498961
  7337.9      -0.505064
  7340.81      -0.504036
  7343.74      -0.493961
  7346.71      -0.476011
  7349.72      -0.455841
  7352.74      -0.438046
  7355.76      -0.422812
  7358.81      -0.409408
  7361.86      -0.398438
  7364.92      -0.392572
  7368.02      -0.394532
  7371.14      -0.405913
  7374.3      -0.428387
  7377.46      -0.460983
  7380.67      -0.499116
  7383.85      -0.529038
  7387.06      -0.543074
  7390.28      -0.544237
  7393.52      -0.538746
  7396.83      -0.533057
  7400.2      -0.531908
  7403.58      -0.533232
  7406.94      -0.533565
  7410.29      -0.532856
  7413.66      -0.532587
  7417.08      -0.533131
  7420.51      -0.53712
  7423.94      -0.544149
  7427.42      -0.550784
  7430.92      -0.552798
  7434.41      -0.551523
  7437.93      -0.547463
  7441.45      -0.538948
  7445      -0.527992
  7448.57      -0.519393
  7452.17      -0.515446
  7455.75      -0.515526
  7459.32      -0.515163
  7462.94      -0.522193
  7466.65      -0.530756
  7470.38      -0.542062
  7474.1      -0.554451
  7477.9      -0.56384
  7481.68      -0.571531
  7485.49      -0.580631
  7489.28      -0.59101
  7493.11      -0.598953
  7496.98      -0.602327
  7500.9      -0.601532
  7504.8      -0.600071
  7508.69      -0.599099
  7512.55      -0.600497
  7516.49      -0.602125
  7520.46      -0.606088
  7524.43      -0.607331
  7528.42      -0.607372
  7532.41      -0.607056
  7536.41      -0.608402
  7540.39      -0.611032
  7544.39      -0.61385
  7548.44      -0.616199
  7552.48      -0.61652
  7556.54      -0.614495
  7560.64      -0.61145
  7564.74      -0.610248
  7568.89      -0.612584
  7573.09      -0.617619
  7577.27      -0.625949
  7581.45      -0.634528
  7585.7      -0.641817
  7589.96      -0.646582
  7594.21      -0.649376
  7598.52      -0.650533
  7602.83      -0.652322
  7607.14      -0.655747
  7611.42      -0.659969
  7615.75      -0.664436
  7620.14      -0.665802
  7624.54      -0.666133
  7629.01      -0.666939
  7633.45      -0.670116
  7637.89      -0.67464
  7642.32      -0.679511
  7646.8      -0.684224
  7651.38      -0.687345
  7655.98      -0.689258
  7660.58      -0.690799
  7665.14      -0.691418
  7669.74      -0.691396
  7674.37      -0.691485
  7679.01      -0.691746
  7683.7      -0.692984
  7688.35      -0.695319
  7693.05      -0.698926
  7697.75      -0.703167
  7702.49      -0.706469
  7707.25      -0.710025
  7712.01      -0.714039
  7716.75      -0.718183
  7721.54      -0.722185
  7726.43      -0.725064
  7731.29      -0.727287
  7736.2      -0.729786
  7741.15      -0.732382
  7746.1      -0.735083
  7751.04      -0.737296
  7756.04      -0.739551
  7761.13      -0.742635
  7766.15      -0.746315
  7771.19      -0.749985
  7776.19      -0.753665
  7781.23      -0.756269
  7786.33      -0.759104
  7791.4      -0.761676
  7796.53      -0.764007
  7801.61      -0.766011
  7806.65      -0.767658
  7811.81      -0.769555
  7816.95      -0.771496
  7822.08      -0.773833
  7827.26      -0.77637
  7832.45      -0.778244
  7837.68      -0.781025
  7842.95      -0.783409
  7848.17      -0.786048
  7853.46      -0.78882
  7858.79      -0.791793
  7864.12      -0.79516
  7869.48      -0.798305
  7874.87      -0.801743
  7880.22      -0.804909
  7885.53      -0.807651
  7890.98      -0.810552
  7896.41      -0.813208
  7901.91      -0.816258
  7907.37      -0.819357
  7912.84      -0.822075
  7918.32      -0.824506
  7923.9      -0.827406
  7929.54      -0.830162
  7935.18      -0.832512
  7940.75      -0.834416
  7946.38      -0.836712
  7952.02      -0.839176
  7957.72      -0.841801
  7963.42      -0.844259
  7969.12      -0.846359