File: root/data/MoO3_111.xdi
# XDI/1.0 Demeter/0.9.26
# Beamline.name: BM08-LISA
# Column.1: energy eV
# Column.2: mutrans
# Column.3: murefer
# Element.edge: K
# Element.symbol: Mo
# Facility.name: ESRF
# Facility.xray_source: Bending magnet
# Mono.d_spacing: 3.134692
# Mono.name: Si(111)
# Mono.notes: LNT cooled
# Sample.formula: MoO3
# Sample.name: Molybdenum trioxide
# Sample.reference: Mo metal foil
# Scan.start_time: 2018-10-22T15:07:35
# ///
# room temperature
#------------------------
#  energy  mutrans  murefer
  19802.854       0.137185        1.43923
  19807.346       0.136831        1.43917
  19812.326       0.136515        1.43897
  19816.860       0.136189        1.43875
  19821.685       0.135988        1.4387
  19826.677       0.1357        1.43856
  19831.455       0.135418        1.43849
  19836.318       0.135158        1.43829
  19841.352       0.134906        1.43828
  19846.297       0.13478        1.43815
  19850.955       0.13475        1.43813
  19855.810       0.134779        1.43787
  19860.888       0.134857        1.43787
  19865.597       0.134694        1.43787
  19870.472       0.134234        1.43786
  19875.462       0.13405        1.43796
  19880.273       0.133963        1.4379
  19884.938       0.13378        1.43791
  19889.975       0.133524        1.43813
  19894.980       0.133208        1.43817
  19899.517       0.132958        1.43827
  19904.488       0.132364        1.4385
  19909.534       0.131807        1.43877
  19914.292       0.131746        1.439
  19919.109       0.131854        1.43937
  19924.198       0.13199        1.4396
  19929.080       0.132248        1.44016
  19933.755       0.132274        1.44084
  19938.830       0.132497        1.4415
  19943.864       0.132912        1.44228
  19948.599       0.133551        1.44343
  19953.545       0.133846        1.44505
  19958.687       0.134853        1.44665
  19963.547       0.136126        1.44898
  19968.388       0.137781        1.45194
  19973.563       0.140205        1.45619
  19973.936       0.140443        1.45662
  19974.461       0.140727        1.45719
  19974.864       0.140934        1.45781
  19975.408       0.141271        1.45831
  19975.977       0.141681        1.45911
  19976.420       0.1419        1.45955
  19977.046       0.14227        1.46032
  19977.532       0.142584        1.4609
  19978.172       0.142971        1.46161
  19978.768       0.143429        1.4624
  19979.180       0.14378        1.46302
  19979.706       0.144194        1.46397
  19980.087       0.14451        1.46471
  19980.583       0.145097        1.46575
  19980.946       0.14543        1.46651
  19981.446       0.146043        1.46757
  19981.963       0.146608        1.46874
  19982.362       0.147051        1.46955
  19982.919       0.147787        1.47082
  19983.357       0.148704        1.4716
  19983.971       0.149423        1.47298
  19984.454       0.149999        1.4741
  19985.089       0.150823        1.47568
  19985.712       0.151472        1.47759
  19986.124       0.151786        1.47914
  19986.650       0.152667        1.48101
  19987.036       0.153376        1.48272
  19987.532       0.154388        1.48498
  19987.896       0.155167        1.48681
  19988.405       0.156307        1.48951
  19988.936       0.157696        1.49244
  19989.339       0.158688        1.49481
  19989.910       0.160153        1.49838
  19990.361       0.16112        1.50131
  19990.985       0.162638        1.50564
  19991.647       0.164523        1.51045
  19992.125       0.165991        1.51456
  19992.762       0.168323        1.52085
  19993.183       0.170049        1.52603
  19993.732       0.172738        1.53409
  19994.122       0.174925        1.54114
  19994.640       0.178257        1.55217
  19995.145       0.181961        1.56561
  19995.531       0.185056        1.57734
  19996.071       0.189814        1.59629
  19996.497       0.193912        1.61366
  19997.085       0.200198        1.64149
  19997.542       0.205727        1.6655
  19998.200       0.214295        1.70273
  19998.868       0.225189        1.74249
  19999.355       0.23476        1.77427
  19999.970       0.249888        1.81539
  20000.383       0.263266        1.84447
  20000.919       0.284707        1.88047
  20001.301       0.303775        1.90593
  20001.810       0.332588        1.93858
  20002.324       0.365678        1.97024
  20002.719       0.392317        1.99399
  20003.260       0.429914        2.02617
  20003.686       0.459621        2.05118
  20004.275       0.496934        2.08464
  20004.740       0.521309        2.1105
  20005.391       0.545697        2.14435
  20006.045       0.557432        2.17772
  20006.520       0.557671        2.20249
  20007.113       0.549523        2.23535
  20007.531       0.539334        2.26073
  20008.049       0.525073        2.29638
  20008.436       0.516132        2.32648
  20008.937       0.507556        2.36904
  20009.452       0.50559        2.41686
  20009.838       0.508053        2.45442
  20010.383       0.517274        2.50813
  20010.810       0.528469        2.54855
  20011.399       0.549756        2.60079
  20011.869       0.570369        2.63807
  20012.533       0.603641        2.68196
  20013.026       0.632857        2.71101
  20013.664       0.67663        2.74307
  20014.257       0.726119        2.76749
  20014.653       0.765076        2.78078
  20015.181       0.821572        2.79305
  20015.559       0.866026        2.79747
  20016.061       0.92602        2.79693
  20016.439       0.971343        2.79207
  20016.971        1.03094        2.7794
  20017.521        1.08712        2.76179
  20017.948        1.12545        2.74698
  20018.559        1.17045        2.72587
  20019.034        1.19793        2.71179
  20019.686        1.22714        2.69651
  20020.183        1.24406        2.68765
  20020.812        1.2611        2.68116
  20021.402        1.2733        2.6793
  20021.802        1.28117        2.68128
  20022.326        1.29088        2.68649
  20022.709        1.29846        2.6927
  20023.229        1.30841        2.70235
  20023.616        1.31615        2.70955
  20024.153        1.32598        2.71949
  20024.576        1.33334        2.72652
  20025.157        1.34077        2.7338
  20025.782        1.34519        2.74012
  20026.257        1.3457        2.74327
  20026.927        1.34408        2.74565
  20027.420        1.34075        2.74618
  20028.036        1.33473        2.74591
  20028.468        1.32872        2.74506
  20029.001        1.32077        2.74363
  20029.516        1.31242        2.7423
  20029.895        1.30703        2.7413
  20030.411        1.29993        2.74123
  20030.798        1.29538        2.7414
  20031.340        1.29141        2.7432
  20031.767        1.28998        2.74537
  20032.349        1.29059        2.74951
  20032.803        1.29293        2.75347
  20033.450        1.2982        2.75952
  20034.116        1.30573        2.76674
  20034.587        1.31196        2.77258
  20035.187        1.32072        2.78088
  20035.597        1.32685        2.78609
  20036.134        1.33512        2.7942
  20036.518        1.33946        2.79992
  20037.020        1.34395        2.80752
  20037.527        1.34546        2.81499
  20037.911        1.34569        2.82067
  20038.440        1.3435        2.82941
  20038.850        1.34105        2.83525
  20039.427        1.33629        2.84402
  20039.877        1.33165        2.85034
  20040.521        1.32457        2.85912
  20041.010        1.31907        2.86532
  20041.645        1.31182        2.87281
  20042.241        1.30365        2.87842
  20042.655        1.29802        2.88204
  20043.180        1.29029        2.88445
  20043.555        1.28546        2.88485
  20044.058        1.27896        2.88261
  20044.424        1.27546        2.87911
  20044.944        1.2712        2.87144
  20045.346        1.26815        2.86414
  20045.902        1.26482        2.85293
  20046.475        1.2625        2.83989
  20046.930        1.2597        2.8291
  20047.574        1.2566        2.81458
  20048.055        1.25547        2.80408
  20048.708        1.2551        2.79043
  20049.154        1.25532        2.78118
  20049.723        1.2552        2.76837
  20050.125        1.25525        2.76055
  20050.641        1.25573        2.7505
  20051.149        1.25644        2.74182
  20051.533        1.25795        2.73619
  20052.058        1.25858        2.72981
  20052.460        1.25861        2.72583
  20053.034        1.25808        2.72187
  20053.467        1.25841        2.71993
  20054.089        1.25634        2.71753
  20054.584        1.25538        2.71649
  20055.255        1.25335        2.71649
  20055.895        1.24922        2.71713
  20056.337        1.24617        2.71804
  20056.898        1.24139        2.72015
  20057.291        1.23819        2.72246
  20057.808        1.23316        2.72561
  20058.183        1.22846        2.72838
  20058.691        1.22335        2.73213
  20059.084        1.21938        2.73513
  20059.632        1.21399        2.73927
  20060.039        1.20998        2.74228
  20060.631        1.20447        2.74586
  20061.245        1.19847        2.74899
  20061.718        1.19465        2.7512
  20062.385        1.18895        2.75332
  20062.849        1.18459        2.75448
  20063.445        1.17927        2.75536
  20063.861        1.17603        2.75545
  20064.383        1.17055        2.75539
  20064.758        1.16727        2.75467
  20065.258        1.16271        2.75386
  20065.762        1.15865        2.7519
  20066.142        1.15532        2.75057
  20066.668        1.15162        2.74872
  20067.070        1.14927        2.74725
  20067.649        1.14623        2.74447
  20068.100        1.14444        2.74272
  20068.737        1.14197        2.73994
  20069.224        1.14066        2.73816
  20069.856        1.13959        2.73559
  20070.882        1.13791        2.73105
  20071.780        1.13866        2.72686
  20072.656        1.14105        2.72307
  20073.554        1.14351        2.71976
  20074.518        1.14703        2.71864
  20075.580        1.15149        2.71874
  20076.877        1.15702        2.72184
  20077.904        1.16273        2.72678
  20078.816        1.16889        2.73465
  20079.829        1.17493        2.74602
  20080.750        1.17998        2.75725
  20081.897        1.18391        2.77093
  20083.013        1.18674        2.78227
  20084.310        1.18893        2.79266
  20085.440        1.18932        2.8
  20086.334        1.18863        2.80394
  20087.367        1.18685        2.80423
  20088.465        1.18386        2.80006
  20089.679        1.1809        2.79183
  20090.814        1.17873        2.78191
  20092.011        1.17609        2.76824
  20093.057        1.17409        2.7536
  20094.054        1.17281        2.73927
  20095.105        1.17213        2.7273
  20096.413        1.1715        2.71769
  20097.699        1.17136        2.71127
  20098.914        1.17135        2.70877
  20099.974        1.17198        2.70841
  20101.096        1.17226        2.71034
  20102.143        1.17328        2.7133
  20103.288        1.17387        2.71607
  20104.739        1.17443        2.71927
  20105.986        1.17479        2.72092
  20107.189        1.17569        2.72284
  20108.206        1.17649        2.7236
  20109.418        1.17757        2.72452
  20110.759        1.17932        2.72561
  20112.256        1.18048        2.72613
  20113.455        1.18195        2.72682
  20114.632        1.18432        2.72835
  20115.796        1.18658        2.73005
  20117.044        1.1889        2.7328
  20118.457        1.19052        2.73693
  20119.906        1.19267        2.74202
  20121.142        1.19448        2.74861
  20122.280        1.19649        2.7549
  20123.463        1.19792        2.76156
  20124.770        1.19896        2.76726
  20126.380        1.19853        2.77161
  20127.705        1.19861        2.77414
  20128.862        1.19735        2.77422
  20130.139        1.1956        2.77144
  20131.393        1.19234        2.76619
  20132.969        1.18924        2.75943
  20134.366        1.18611        2.75271
  20135.711        1.18117        2.7442
  20136.984        1.17706        2.73532
  20138.231        1.1732        2.72672
  20139.789        1.16948        2.71626
  20141.401        1.16668        2.70606
  20142.765        1.16375        2.69577
  20143.901        1.16246        2.68826
  20145.273        1.16126        2.68192
  20146.810        1.16142        2.67818
  20148.428        1.16103        2.67522
  20149.783        1.15967        2.67338
  20151.054        1.15957        2.67256
  20152.539        1.15917        2.67099
  20154.086        1.159        2.66994
  20155.665        1.15871        2.66889
  20157.012        1.15795        2.66955
  20158.400        1.15688        2.67146
  20159.765        1.15622        2.67443
  20161.336        1.15473        2.67855
  20163.054        1.15368        2.68377
  20164.380        1.15297        2.68808
  20165.805        1.15257        2.69223
  20167.376        1.15238        2.69552
  20169.007        1.15229        2.69811
  20170.650        1.15199        2.70057
  20172.058        1.1512        2.7015
  20173.519        1.15035        2.70105
  20175.002        1.14975        2.70023
  20176.777        1.1491        2.69862
  20178.283        1.14871        2.6977
  20179.669        1.14743        2.69898
  20181.145        1.14647        2.70277
  20182.849        1.14539        2.70985
  20184.526        1.14432        2.72
  20186.074        1.14264        2.73327
  20187.483        1.14142        2.74514
  20189.054        1.14043        2.7558
  20190.845        1.13974        2.76421
  20192.532        1.13862        2.76937
  20193.925        1.13807        2.77119
  20195.568        1.13678        2.76944
  20197.333        1.13582        2.76388
  20199.169        1.13402        2.75419
  20200.581        1.13269        2.74182
  20202.176        1.13165        2.72563
  20203.973        1.13039        2.7074
  20205.725        1.13019        2.68943
  20207.313        1.13017        2.67012
  20208.833        1.13095        2.65181
  20210.528        1.13131        2.63492
  20212.439        1.13217        2.62113
  20214.103        1.13326        2.61109
  20215.611        1.13554        2.60605
  20217.248        1.13692        2.60564
  20219.165        1.13892        2.60962
  20220.920        1.14005        2.61616
  20222.456        1.14036        2.62327
  20224.068        1.1404        2.62958
  20226.125        1.13928        2.6342
  20227.940        1.13781        2.63631
  20229.472        1.13625        2.63739
  20231.211        1.13408        2.63796
  20233.054        1.13206        2.63924
  20235.005        1.13012        2.64171
  20236.520        1.12802        2.64556
  20238.211        1.12552        2.65098
  20240.172        1.12343        2.65702
  20242.012        1.12155        2.66383
  20243.672        1.11997        2.67146
  20245.364        1.11813        2.6801
  20247.367        1.11508        2.68817
  20249.231        1.11312        2.69463
  20250.933        1.11086        2.70076
  20252.671        1.11037        2.70546
  20254.712        1.10978        2.70794
  20256.717        1.10974        2.70941
  20258.393        1.11043        2.70967
  20260.295        1.11129        2.70918
  20262.364        1.11294        2.70903
  20264.262        1.11422        2.70952
  20265.903        1.11564        2.70991
  20267.847        1.11696        2.70979
  20269.931        1.11766        2.70793
  20271.759        1.11827        2.70485
  20273.550        1.11934        2.70081
  20275.432        1.11935        2.69592
  20277.699        1.12005        2.69022
  20279.591        1.12096        2.68316
  20281.338        1.12193        2.67565
  20283.543        1.12251        2.66587
  20285.716        1.12307        2.65513
  20287.397        1.12361        2.64539
  20289.349        1.12401        2.63689
  20291.596        1.12351        2.62972
  20293.581        1.12325        2.62414
  20295.372        1.12227        2.61881
  20297.439        1.12121        2.61382
  20299.656        1.12028        2.60888
  20301.498        1.12        2.60477
  20303.376        1.11981        2.60251
  20305.613        1.11959        2.60216
  20307.827        1.11881        2.60543
  20309.666        1.12118        2.61122
  20311.740        1.11698        2.61805
  20314.160        1.10972        2.62435
  20316.031        1.10703        2.63062
  20317.921        1.10482        2.63658
  20320.310        1.10314        2.643
  20322.351        1.10265        2.64917
  20324.265        1.10176        2.65506
  20326.474        1.10178        2.66044
  20328.702        1.10249        2.66491
  20330.658        1.10373        2.66878
  20332.723        1.10491        2.67182
  20335.157        1.10651        2.67403
  20337.128        1.10866        2.67569
  20339.103        1.11012        2.67672
  20341.411        1.11119        2.67699
  20343.724        1.11142        2.67594
  20345.651        1.11003        2.6738
  20347.779        1.10938        2.67117
  20350.166        1.10908        2.66797
  20352.153        1.10769        2.66373
  20354.278        1.10659        2.66012
  20356.648        1.10461        2.65713
  20358.787        1.10178        2.65509
  20360.867        1.09903        2.65414
  20363.135        1.09659        2.65333
  20365.484        1.0952        2.6517
  20367.579        1.09327        2.64867
  20369.784        1.09121        2.64423
  20372.377        1.08904        2.6379
  20374.369        1.08704        2.63128
  20376.598        1.08537        2.62477
  20379.184        1.0841        2.6205
  20381.218        1.08348        2.61817
  20383.367        1.08287        2.61764
  20385.917        1.08319        2.61822
  20388.190        1.08314        2.61884
  20390.322        1.08297        2.61869
  20392.856        1.08346        2.61827
  20395.245        1.08367        2.61764
  20397.383        1.08407        2.61606
  20399.882        1.08479        2.61461
  20402.323        1.08501        2.61301
  20404.421        1.08547        2.61278
  20406.817        1.08586        2.61381
  20409.456        1.08667        2.61696
  20411.537        1.08729        2.62016
  20413.885        1.08774        2.62316
  20416.553        1.08826        2.6254
  20418.640        1.08912        2.62646
  20420.962        1.08961        2.62683
  20423.705        1.08975        2.62603
  20425.835        1.09006        2.62489
  20428.305        1.08936        2.62339
  20431.037        1.08876        2.62196
  20433.146        1.0879        2.62093
  20435.567        1.08751        2.62061
  20438.286        1.08855        2.62152
  20440.502        1.08824        2.62286
  20442.778        1.08548        2.62484
  20445.514        1.08304        2.62716
  20447.759        1.08026        2.63007
  20450.206        1.07658        2.63284
  20452.976        1.07347        2.63437
  20455.241        1.07208        2.63395
  20457.750        1.07246        2.63279
  20460.627        1.07206        2.6303
  20462.871        1.07189        2.62761
  20465.391        1.07214        2.62594
  20468.059        1.07219        2.62448
  20470.396        1.07276        2.62316
  20472.941        1.07254        2.62061
  20475.574        1.07298        2.61789
  20477.950        1.07402        2.61394
  20480.580        1.07452        2.60908
  20483.326        1.07424        2.60501
  20485.616        1.07451        2.60258
  20488.497        1.07579        2.60099
  20491.097        1.07561        2.60043
  20493.380        1.07557        2.60099
  20496.286        1.07537        2.60151
  20498.786        1.07474        2.60235
  20501.269        1.07273        2.60266
  20504.048        1.07127        2.60307
  20506.491        1.06968        2.60306
  20509.054        1.06792        2.60268
  20511.992        1.06661        2.60224
  20514.395        1.06549        2.60109
  20517.099        1.06455        2.60006
  20520.049        1.06384        2.59871
  20522.444        1.06311        2.59775
  20525.266        1.06164        2.59642
  20527.899        1.06055        2.5954
  20530.338        1.05905        2.59432
  20533.416        1.0578        2.59402
  20535.908        1.05686        2.59327
  20538.617        1.0559        2.59389
  20541.592        1.05494        2.59512
  20544.030        1.05467        2.59666
  20546.955        1.05438        2.59752
  20549.885        1.05412        2.59718
  20552.316        1.05421        2.59623
  20555.401        1.05442        2.59492
  20558.069        1.05403        2.59266
  20560.599        1.05384        2.59226
  20563.710        1.05357        2.59201
  20566.264        1.05334        2.59194
  20569.177        1.05348        2.59234
  20572.142        1.0529        2.59292
  20574.768        1.05295        2.59409
  20577.907        1.05276        2.59624
  20580.576        1.05302        2.59901
  20583.298        1.05252        2.60225
  20586.402        1.05229        2.60417
  20588.943        1.0519        2.60573
  20591.909        1.05113        2.60534
  20594.759        1.05069        2.60315
  20597.517        1.05049        2.59972
  20600.686        1.04994        2.59629
  20603.287        1.04925        2.59292
  20606.317        1.04941        2.58804
  20609.302        1.04862        2.58374
  20611.994        1.04764        2.57982
  20615.093        1.04697        2.57665
  20617.884        1.046        2.57465
  20620.625        1.04415        2.57384
  20623.810        1.04299        2.57319
  20626.333        1.04258        2.57272
  20629.520        1.04191        2.57205
  20632.465        1.04184        2.57135
  20635.340        1.04127        2.57017
  20638.591        1.04097        2.56803
  20641.113        1.04074        2.56606
  20644.201        1.04054        2.56445
  20647.160        1.04046        2.56438
  20649.922        1.04003        2.56521
  20653.201        1.0395        2.56671
  20655.895        1.03884        2.56829
  20659.180        1.03865        2.56985
  20662.204        1.03725        2.57093
  20665.041        1.0368        2.57139
  20668.362        1.03603        2.57157
  20671.097        1.03533        2.5715
  20674.411        1.03399        2.57094
  20677.350        1.03317        2.57063
  20680.332        1.03247        2.56966
  20683.583        1.03197        2.56932
  20686.294        1.03093        2.56889
  20689.702        1.02978        2.56881
  20692.772        1.02896        2.56856
  20695.731        1.02739        2.5688
  20699.099        1.02692        2.56932
  20701.810        1.02589        2.56976
  20705.223        1.02526        2.57025
  20708.152        1.02445        2.57069
  20711.308        1.02411        2.57107
  20714.569        1.02455        2.57077
  20717.363        1.02286        2.56918
  20720.838        1.02259        2.56723
  20723.729        1.02296        2.56536
  20727.027        1.02201        2.56356
  20730.132        1.02128        2.56226
  20733.096        1.02054        2.5609
  20736.477        1.01967        2.55904
  20739.434        1.01882        2.55645
  20742.812        1.01841        2.55363
  20745.766        1.01747        2.55163
  20748.924        1.01652        2.55042
  20752.362        1.01645        2.54907
  20755.318        1.01573        2.54852
  20758.792        1.01598        2.54768
  20761.788        1.01524        2.54619
  20765.164        1.01481        2.54469
  20768.347        1.01419        2.54181
  20771.474        1.01339        2.53974
  20774.952        1.01204        2.53845
  20777.911        1.01159        2.53777
  20781.572        1.01126        2.53713
  20784.641        1.01103        2.53762
  20788.058        1.00984        2.53836
  20791.234        1.00965        2.53964
  20794.553        1.00849        2.54182
  20797.958        1.00862        2.54353
  20801.066        1.00804        2.54521
  20804.683        1.00756        2.5465
  20807.726        1.00666        2.54671
  20811.393        1.00671        2.54565
  20814.504        1.00602        2.54444
  20817.997        1.00539        2.54296
  20821.278        1.00493        2.54195
  20824.521        1.00396        2.54109
  20828.046        1.00289        2.54071
  20831.143        1.00236        2.54044
  20834.947        1.00194        2.54077
  20837.989        1.00137        2.54082
  20841.634       0.99986        2.54109
  20844.921       0.999764        2.54048
  20848.387       0.999173        2.53909
  20851.691       0.998326        2.53815
  20855.039       0.99819        2.53643
  20858.570       0.998162        2.53578