File: root/data/Nb_foil_311.xdi
# XDI/1.0 Demeter/0.9.26
# Beamline.name: BM08-LISA
# Column.1: energy eV
# Column.2: mutrans
# Element.edge: K
# Element.symbol: Nb
# Facility.name: ESRF
# Facility.xray_source: Bending magnet
# Mono.d_spacing: 1.637039
# Mono.name: Si(311)
# Mono.notes: LNT cooled
# Sample.formula: Nb
# Sample.name: Nb metal foil
# Scan.start_time: 2023-06-17T21:18:03
# ///
# room temperature
#------------------------
#   energy  mutrans
  18785.591       0.0793417
  18790.469       0.0788486
  18795.314       0.0784182
  18800.309       0.0780031
  18805.139       0.0778335
  18810.165       0.0772147
  18815.109       0.0768091
  18820.112       0.076543
  18824.947       0.0762099
  18830.056       0.075958
  18834.876       0.0753834
  18839.954       0.0752131
  18844.863       0.0748268
  18849.745       0.0746275
  18854.739       0.0742855
  18859.554       0.0740365
  18864.696       0.0738855
  18869.550       0.0732932
  18874.626       0.0732812
  18879.547       0.0730451
  18884.594       0.0726507
  18889.543       0.0726901
  18894.662       0.0730344
  18899.774       0.0729213
  18904.858       0.072518
  18910.015       0.0725336
  18914.952       0.0727062
  18920.186       0.0731039
  18925.210       0.0733146
  18930.312       0.0737925
  18935.401       0.0744724
  18940.339       0.0755331
  18945.595       0.0769973
  18950.469       0.0785888
  18955.669       0.0814172
  18956.154       0.0816306
  18956.640       0.0818441
  18957.099       0.082317
  18957.671       0.0824863
  18958.247       0.0830732
  18958.765       0.0833261
  18959.178       0.0837248
  18959.643       0.0841683
  18960.136       0.0846318
  18960.672       0.0850372
  18961.177       0.0853489
  18961.742       0.0859653
  18962.243       0.0864158
  18962.714       0.0870703
  18963.130       0.087372
  18963.654       0.087974
  18964.228       0.0886639
  18964.738       0.0893533
  18965.272       0.0899242
  18965.759       0.0905605
  18966.240       0.0912003
  18966.691       0.0921078
  18967.258       0.0928118
  18967.857       0.0936048
  18968.349       0.0943143
  18968.852       0.0954417
  18969.334       0.0963387
  18969.835       0.097391
  18970.313       0.0983451
  18970.902       0.0995889
  18971.463       0.100895
  18971.961       0.10217
  18972.371       0.103412
  18972.847       0.104697
  18973.359       0.106576
  18973.840       0.107959
  18974.420       0.109879
  18974.950       0.111862
  18975.432       0.113719
  18975.838       0.115872
  18976.334       0.118521
  18976.875       0.121293
  18977.381       0.123928
  18977.955       0.127628
  18978.459       0.131154
  18978.933       0.135417
  18979.362       0.139791
  18979.888       0.14514
  18980.470       0.15129
  18980.985       0.157285
  18981.524       0.165655
  18982.010       0.175522
  18982.486       0.186932
  18982.925       0.199016
  18983.483       0.215838
  18984.062       0.23662
  18984.535       0.258219
  18985.027       0.289953
  18985.491       0.329477
  18985.971       0.378351
  18986.423       0.427869
  18986.987       0.487978
  18987.554       0.544494
  18988.004       0.584884
  18988.483       0.617653
  18988.949       0.637688
  18989.382       0.649056
  18989.924       0.659904
  18990.508       0.671855
  18991.062       0.687439
  18991.496       0.704462
  18991.972       0.727376
  18992.463       0.752921
  18992.931       0.777545
  18993.516       0.80813
  18994.104       0.840814
  18994.630       0.874131
  18995.050       0.903636
  18995.528       0.937807
  18996.042       0.972774
  18996.531        1.00581
  18997.113        1.04674
  18997.651        1.0907
  18998.075        1.13212
  18998.540        1.18246
  18999.018        1.23249
  18999.538        1.28036
  19000.029        1.31841
  19000.596        1.35729
  19001.105        1.38908
  19001.515        1.4111
  19001.982        1.43087
  19002.479        1.44355
  19002.950        1.44894
  19003.531        1.44861
  19004.088        1.44109
  19004.522        1.42972
  19004.995        1.41174
  19005.483        1.39139
  19006.015        1.37128
  19006.523        1.35527
  19007.108        1.34082
  19007.636        1.33071
  19008.061        1.32579
  19008.536        1.32455
  19009.040        1.32638
  19009.519        1.33034
  19010.101        1.33664
  19010.643        1.34413
  19011.070        1.35073
  19011.535        1.35776
  19012.011        1.36405
  19012.527        1.3692
  19013.017        1.37232
  19013.588        1.37428
  19014.111        1.37452
  19014.523        1.37451
  19014.992        1.37331
  19015.489        1.37216
  19015.958        1.37045
  19017.189        1.36872
  19018.222        1.37216
  19019.352        1.38204
  19020.575        1.39657
  19021.670        1.41287
  19022.898        1.42772
  19024.105        1.44325
  19025.240        1.45996
  19026.558        1.47533
  19027.745        1.48579
  19029.007        1.4872
  19030.352        1.476
  19031.575        1.45319
  19033.070        1.42372
  19034.369        1.39781
  19035.756        1.37787
  19037.198        1.36466
  19038.538        1.35788
  19040.082        1.35738
  19041.408        1.36156
  19042.950        1.36829
  19044.397        1.37632
  19045.991        1.38179
  19047.506        1.38286
  19049.117        1.37986
  19050.621        1.37421
  19052.147        1.3681
  19053.808        1.36149
  19055.314        1.35593
  19057.012        1.35254
  19058.696        1.35387
  19060.406        1.36176
  19062.107        1.37601
  19063.810        1.39208
  19065.489        1.40578
  19067.215        1.41492
  19069.020        1.4161
  19070.738        1.40861
  19072.708        1.39334
  19074.477        1.37493
  19076.437        1.35907
  19078.169        1.34993
  19080.114        1.3474
  19082.009        1.34844
  19083.888        1.35146
  19086.007        1.35264
  19087.846        1.35245
  19089.910        1.35253
  19091.918        1.35311
  19093.818        1.35385
  19095.951        1.35772
  19097.996        1.36425
  19100.109        1.37191
  19102.314        1.37968
  19104.288        1.38514
  19106.436        1.38696
  19108.613        1.38386
  19110.716        1.37655
  19113.018        1.36719
  19115.319        1.35632
  19117.380        1.34452
  19119.671        1.33286
  19122.006        1.32403
  19124.187        1.31897
  19126.600        1.31568
  19129.032        1.31293
  19131.334        1.31116
  19133.655        1.31204
  19136.122        1.31562
  19138.590        1.32021
  19141.010        1.32438
  19143.384        1.32743
  19145.878        1.3292
  19148.362        1.32889
  19150.800        1.32795
  19153.348        1.32982
  19155.929        1.33624
  19158.406        1.34756
  19160.855        1.35963
  19163.422        1.36776
  19166.168        1.37067
  19168.828        1.36718
  19171.396        1.35632
  19173.928        1.34088
  19176.640        1.32108
  19179.384        1.30112
  19182.167        1.28273
  19184.887        1.27077
  19187.496        1.26697
  19190.273        1.26922
  19193.133        1.27333
  19196.040        1.27641
  19198.850        1.27767
  19201.701        1.27936
  19204.646        1.28465
  19207.527        1.29148
  19210.432        1.29898
  19213.359        1.30751
  19216.354        1.31476
  19219.474        1.32182
  19222.559        1.3261
  19225.577        1.32741
  19228.613        1.32799
  19231.757        1.32806
  19234.897        1.3258
  19237.940        1.32145
  19240.972        1.31582
  19244.153        1.30813
  19247.400        1.2974
  19250.557        1.28658
  19253.756        1.27752
  19257.006        1.2703
  19260.331        1.26368
  19263.603        1.25852
  19266.905        1.25653
  19270.252        1.25897
  19273.688        1.26464
  19277.053        1.27116
  19280.414        1.27678
  19283.800        1.28225
  19287.260        1.28781
  19290.751        1.29167
  19294.174        1.29404
  19297.655        1.296
  19301.222        1.2962
  19304.718        1.29476
  19308.214        1.29158
  19311.782        1.28806
  19315.506        1.28536
  19319.054        1.28333
  19322.628        1.28064
  19326.257        1.27651
  19329.971        1.27007
  19333.535        1.26508
  19337.145        1.26183
  19340.925        1.25937
  19344.650        1.25758
  19348.365        1.25532
  19352.137        1.25415
  19356.005        1.25274
  19359.823        1.25252
  19363.489        1.25523
  19367.282        1.25715
  19371.148        1.25781
  19374.876        1.25743
  19378.730        1.25696
  19382.754        1.25619
  19386.720        1.25595
  19390.667        1.25654
  19394.640        1.25768
  19398.650        1.25898
  19402.593        1.25894
  19406.705        1.25793
  19410.879        1.25626
  19414.891        1.25437
  19418.851        1.25196
  19423.024        1.24863
  19427.289        1.24522
  19431.412        1.24217
  19435.505        1.24005
  19439.739        1.23863
  19443.979        1.23767
  19448.276        1.23709
  19452.522        1.23622
  19456.746        1.23526
  19461.053        1.23445
  19465.485        1.23338
  19469.744        1.23203
  19474.021        1.23125
  19478.527        1.23051
  19483.003        1.2304
  19487.348        1.23044
  19491.832        1.22918
  19496.482        1.22825
  19500.833        1.22753
  19505.373        1.22756
  19510.036        1.22743
  19514.458        1.22781
  19519.015        1.22874
  19523.728        1.22799
  19528.227        1.22687
  19532.709        1.22454
  19537.575        1.22134
  19542.066        1.21856
  19546.716        1.21529
  19551.561        1.2123
  19556.084        1.21051
  19560.728        1.20949
  19565.611        1.20821
  19570.134        1.20666
  19575.010        1.205
  19579.815        1.20447
  19584.408        1.20402
  19589.311        1.20392
  19594.076        1.20357
  19598.849        1.20326
  19603.701        1.20256
  19608.412        1.20155
  19613.236        1.20093
  19618.084        1.20032
  19622.939        1.19992
  19627.918        1.19886
  19632.781        1.19812
  19637.780        1.19679
  19642.645        1.19518
  19647.692        1.19308
  19652.723        1.19227
  19657.574        1.19017
  19662.696        1.18795
  19667.549        1.18576
  19672.639        1.18402
  19677.655        1.18238
  19682.604        1.18061
  19687.774        1.17923
  19692.778        1.17673
  19697.954        1.17631
  19702.990        1.17546
  19708.250        1.17479
  19713.230        1.17457
  19718.575        1.17404
  19723.705        1.17348
  19729.034        1.17247
  19734.235        1.17124
  19739.552        1.1707
  19744.773        1.16905
  19750.071        1.16821
  19755.296        1.16668
  19760.629        1.16576
  19765.805        1.16408
  19771.281        1.1627
  19776.534        1.1608
  19781.983        1.15911
  19787.342        1.15758
  19792.776        1.15563
  19798.046        1.1538
  19803.626        1.15237
  19808.926        1.15065
  19814.579        1.14931
  19819.914        1.14834
  19825.578        1.14703
  19831.123        1.146
  19836.631        1.14491
  19842.289        1.1438
  19847.702        1.13992