File: root/data/Ru_foil_311.xdi
# XDI/1.0 Demeter/0.9.26
# Beamline.name: BM08-LISA
# Column.1: energy eV
# Column.2: mutrans
# Element.edge: K
# Element.symbol: Ru
# Facility.name: ESRF
# Facility.xray_source: Bending magnet
# Mono.d_spacing: 1.637039
# Mono.name: Si(311)
# Mono.notes: LNT cooled
# Sample.formula: Ru
# Sample.name: Ru metal foil
# Scan.start_time: 2018-09-29T17:08:35
# ///
# room temperature
#------------------------
#   energy  mutrans
  21908.408      -0.0477544
  21908.647      -0.046071
  21908.655      -0.0479571
  21912.927      -0.0481622
  21913.219      -0.0484545
  21913.227      -0.046422
  21917.702      -0.0482551
  21917.996      -0.0482665
  21918.002      -0.0466451
  21922.700      -0.0479595
  21923.008      -0.048703
  21923.027      -0.0470107
  21927.574      -0.0481684
  21927.874      -0.0482581
  21927.891      -0.0465326
  21932.623      -0.0481402
  21932.883      -0.0484418
  21932.893      -0.0466778
  21937.658      -0.0481404
  21937.863      -0.0467122
  21942.550      -0.0485892
  21942.725      -0.0467502
  21947.423      -0.048649
  21947.590      -0.0469152
  21952.295      -0.0486388
  21952.465      -0.0469536
  21957.194      -0.0486011
  21957.380      -0.04682
  21962.109      -0.0489028
  21962.292      -0.0471652
  21967.007      -0.0488556
  21967.188      -0.0469037
  21972.033      -0.048373
  21972.192      -0.0469454
  21976.958      -0.0486582
  21977.086      -0.0469875
  21981.851      -0.0484327
  21981.964      -0.0468702
  21986.731      -0.0481659
  21986.832      -0.0472297
  21991.673      -0.0489089
  21991.772      -0.0469037
  21996.537      -0.0482881
  21996.625      -0.0469407
  22001.509      -0.0483214
  22006.633      -0.0485765
  22011.697      -0.0483008
  22016.612      -0.047672
  22021.540      -0.0470401
  22026.473      -0.0471588
  22031.315      -0.0470168
  22036.189      -0.0464824
  22041.135      -0.0457137
  22046.198      -0.0453595
  22051.239      -0.0442644
  22056.299      -0.0430218
  22061.300      -0.0421029
  22066.097      -0.040479
  22071.003      -0.0379479
  22076.014      -0.0354504
  22077.090      -0.0352493
  22078.180      -0.034558
  22079.165      -0.0330714
  22080.045      -0.0323792
  22081.000      -0.0319862
  22082.182      -0.0308093
  22083.139      -0.0296976
  22083.978      -0.0281962
  22084.964      -0.0271552
  22086.007      -0.0259607
  22087.073      -0.0245378
  22088.045      -0.0228491
  22088.912      -0.0214116
  22089.892      -0.0198275
  22091.108      -0.0169544
  22092.081      -0.0142397
  22092.951      -0.0117614
  22093.884      -0.00816369
  22095.065      -0.00415916
  22096.106      -0.000223748
  22096.999       0.00478681
  22097.958       0.0116225
  22098.950       0.0194164
  22100.048       0.0283339
  22101.071       0.042189
  22101.922       0.0583475
  22102.851       0.0812849
  22104.035       0.114498
  22105.061       0.153679
  22105.932       0.195861
  22106.828       0.239014
  22107.954       0.284113
  22109.078       0.321928
  22110.019       0.354853
  22110.984       0.384604
  22111.967       0.40806
  22113.082       0.429278
  22114.090       0.456506
  22115.036       0.495295
  22115.936       0.538715
  22116.966       0.581283
  22118.129       0.624137
  22119.024       0.657449
  22119.884       0.683805
  22120.840       0.706492
  22122.037       0.724992
  22123.015       0.735734
  22123.882       0.739683
  22124.885       0.733667
  22125.957       0.721342
  22127.041       0.706682
  22127.955       0.691829
  22128.934       0.677932
  22129.937       0.670413
  22131.060       0.666794
  22132.106       0.667883
  22132.965       0.670145
  22133.883       0.672903
  22134.934       0.674782
  22136.077       0.67741
  22136.564       0.678821
  22137.028       0.680974
  22137.501       0.683367
  22137.993       0.685337
  22138.525       0.689801
  22139.204       0.696062
  22139.807       0.700737
  22140.458       0.708928
  22140.948       0.715536
  22141.496       0.724975
  22141.964       0.733402
  22142.548       0.74268
  22143.099       0.751481
  22143.801       0.761616
  22144.502       0.769819
  22145.134       0.778571
  22145.696       0.787644
  22146.250       0.794012
  22146.827       0.79906
  22147.453       0.80341
  22148.146       0.806506
  22148.856       0.807069
  22149.483       0.806738
  22150.129       0.802054
  22150.672       0.796406
  22151.232       0.790062
  22151.928       0.781873
  22152.602       0.772437
  22153.399       0.762622
  22154.009       0.752985
  22154.639       0.741853
  22155.257       0.730685
  22155.831       0.721876
  22156.553       0.71266
  22157.345       0.705403
  22158.117       0.697801
  22158.788       0.693036
  22159.413       0.688325
  22160.054       0.685892
  22160.759       0.683964
  22161.554       0.682981
  22162.462       0.683283
  22163.159       0.684044
  22163.795       0.684835
  22164.529       0.68631
  22165.234       0.688455
  22166.026       0.689964
  22166.927       0.692016
  22167.708       0.693641
  22168.330       0.695259
  22169.050       0.696241
  22169.848       0.698117
  22170.743       0.698323
  22171.514       0.697874
  22172.259       0.698606
  22172.956       0.698287
  22173.693       0.698139
  22174.514       0.698069
  22175.427       0.697736
  22176.345       0.698515
  22177.068       0.699634
  22177.786       0.701048
  22178.659       0.702568
  22179.564       0.704845
  22180.458       0.708296
  22181.296       0.71187
  22182.005       0.716269
  22182.854       0.720999
  22183.818       0.72728
  22184.723       0.731178
  22185.589       0.736157
  22186.363       0.740682
  22187.182       0.745831
  22188.107       0.749286
  22189.108       0.752063
  22189.963       0.753997
  22190.740       0.754852
  22191.551       0.753829
  22192.459       0.752797
  22193.466       0.749784
  22194.433       0.746711
  22195.216       0.743433
  22196.041       0.73904
  22197.068       0.734547
  22198.083       0.730073
  22199.040       0.725706
  22199.831       0.721514
  22200.766       0.717634
  22201.840       0.715011
  22202.920       0.712836
  22203.743       0.710419
  22204.608       0.709054
  22205.565       0.708687
  22206.665       0.708221
  22207.679       0.707514
  22208.552       0.708591
  22209.454       0.708921
  22210.473       0.708216
  22211.683       0.708221
  22212.619       0.707546
  22213.495       0.706879
  22214.568       0.705449
  22215.695       0.704404
  22216.810       0.703374
  22217.695       0.702085
  22218.735       0.702557
  22219.834       0.702304
  22221.008       0.702648
  22221.981       0.703119
  22222.967       0.70381
  22224.111       0.706155
  22225.208       0.707785
  22226.209       0.710475
  22227.177       0.713628
  22228.270       0.717341
  22229.589       0.720237
  22230.616       0.723173
  22231.589       0.727157
  22232.689       0.729021
  22234.028       0.732324
  22235.075       0.734206
  22236.057       0.735013
  22237.256       0.736209
  22238.488       0.736156
  22239.614       0.734768
  22240.664       0.733064
  22241.759       0.731552
  22243.065       0.728557
  22244.158       0.725482
  22245.203       0.721625
  22246.408       0.717326
  22247.616       0.712818
  22248.698       0.708938
  22249.839       0.703189
  22251.073       0.698411
  22252.355       0.694159
  22253.426       0.68983
  22254.514       0.686343
  22255.892       0.68337
  22257.112       0.680417
  22258.139       0.677455
  22259.320       0.676274
  22260.614       0.675335
  22261.849       0.67492
  22262.862       0.67657
  22264.086       0.678675
  22265.485       0.680536
  22266.659       0.683926
  22267.698       0.686897
  22269.010       0.691074
  22270.384       0.694352
  22271.524       0.697995
  22272.712       0.700949
  22274.112       0.703177
  22275.377       0.705892
  22276.563       0.708189
  22277.822       0.710279
  22279.214       0.711548
  22280.359       0.713497
  22281.599       0.7146
  22282.960       0.714747
  22284.342       0.716701
  22285.461       0.716015
  22286.829       0.715767
  22288.335       0.715618
  22289.497       0.716042
  22290.777       0.7155
  22292.295       0.715723
  22293.618       0.715188
  22294.739       0.715251
  22296.133       0.71545
  22297.581       0.714859
  22298.775       0.715113
  22300.175       0.714721
  22301.680       0.714942
  22302.928       0.714908
  22304.182       0.71434
  22305.688       0.712882
  22307.131       0.711263
  22308.372       0.708942
  22309.912       0.706471
  22311.339       0.703918
  22312.631       0.701873
  22313.999       0.697903
  22315.576       0.694693
  22316.869       0.691185
  22318.294       0.687892
  22319.818       0.684498
  22321.159       0.681142
  22322.551       0.676623
  22324.200       0.67323
  22325.590       0.669945
  22326.968       0.667068
  22328.615       0.665021
  22329.991       0.663681
  22331.424       0.662572
  22333.032       0.662463
  22334.417       0.663042
  22335.814       0.663081
  22337.391       0.664593
  22338.907       0.665599
  22340.225       0.66742
  22341.914       0.669204
  22343.371       0.670818
  22344.794       0.673001
  22346.483       0.674535
  22347.910       0.676169
  22349.305       0.679019
  22350.981       0.680979
  22352.484       0.684111
  22353.872       0.686943
  22355.552       0.690773
  22357.058       0.693934
  22358.469       0.696518
  22360.175       0.699687
  22361.768       0.702041
  22363.202       0.703849
  22364.911       0.705338
  22366.437       0.706811
  22367.868       0.707438
  22369.559       0.708561
  22371.056       0.709724
  22372.608       0.709231
  22374.305       0.708906
  22375.783       0.707289
  22377.398       0.705516
  22379.104       0.70319
  22380.591       0.701691
  22382.269       0.698568
  22383.990       0.695289
  22385.453       0.693322
  22387.186       0.69167
  22388.811       0.688969
  22390.285       0.686918
  22392.084       0.6849
  22393.727       0.683344
  22395.271       0.681146
  22397.094       0.678686
  22398.675       0.67729
  22400.310       0.675374
  22402.057       0.673601
  22403.601       0.671022
  22405.411       0.669084
  22407.036       0.666885
  22408.601       0.664703
  22410.483       0.66188
  22412.003       0.659904
  22413.669       0.656576
  22415.569       0.654495
  22417.127       0.65258
  22418.919       0.650804
  22420.672       0.650721
  22422.222       0.65039
  22424.084       0.651504
  22425.688       0.652917
  22427.305       0.654969
  22429.273       0.656951
  22430.810       0.659564
  22432.596       0.661956
  22434.450       0.664601
  22436.031       0.66718
  22438.018       0.670524
  22439.596       0.673194
  22441.360       0.67578
  22443.274       0.678179
  22444.801       0.681385
  22446.735       0.683617
  22448.484       0.686154
  22450.209       0.687605
  22452.199       0.690092
  22453.756       0.69038
  22455.674       0.691069
  22457.467       0.69117
  22459.223       0.691593
  22461.197       0.692167
  22462.821       0.691271
  22464.690       0.690631
  22466.535       0.688774
  22468.321       0.68667
  22470.342       0.683696
  22472.083       0.680443
  22474.013       0.677865
  22475.921       0.675429
  22477.636       0.674236
  22479.728       0.672511
  22481.364       0.67161
  22483.414       0.670922
  22485.277       0.671102
  22487.183       0.670744
  22489.257       0.670078
  22491.044       0.668955
  22493.155       0.668953
  22494.917       0.668187
  22496.905       0.666973
  22498.828       0.66625
  22500.634       0.665904
  22502.733       0.663923
  22504.493       0.662884
  22506.708       0.661113
  22508.526       0.659078
  22510.503       0.656025
  22512.563       0.654672
  22514.368       0.652894
  22516.553       0.651699
  22518.290       0.651287
  22520.479       0.650907
  22522.386       0.651923
  22524.509       0.652215
  22526.480       0.653126
  22528.437       0.652509
  22530.613       0.653548
  22532.458       0.654657
  22534.667       0.654665
  22536.490       0.655786
  22538.613       0.656714
  22540.561       0.657635
  22542.569       0.657976
  22544.775       0.659984
  22546.674       0.660723
  22548.880       0.662693
  22550.708       0.663343
  22552.990       0.665502
  22554.827       0.667664
  22557.012       0.668956
  22558.992       0.670338
  22561.090       0.671609
  22563.279       0.673184
  22565.176       0.673887
  22567.440       0.67483
  22569.332       0.676022
  22571.609       0.676844
  22573.424       0.676789
  22575.626       0.6757
  22577.670       0.674513
  22579.824       0.671778
  22581.979       0.669542
  22584.134       0.666622
  22586.330       0.664005
  22588.292       0.661882
  22590.561       0.660301
  22592.465       0.65851
  22594.860       0.657459
  22596.786       0.656587
  22599.184       0.655852
  22601.160       0.655853
  22603.490       0.654714
  22605.519       0.65335
  22607.757       0.652917
  22609.940       0.651204
  22612.010       0.648871
  22614.322       0.648193
  22616.478       0.645298
  22618.849       0.644243
  22620.967       0.643272
  22623.351       0.642606
  22625.421       0.64196
  22627.799       0.641517
  22629.835       0.642007
  22632.259       0.643073
  22634.322       0.643864
  22636.784       0.644034
  22638.943       0.644268
  22641.372       0.646338
  22643.401       0.647407
  22645.897       0.648117
  22647.928       0.649506
  22650.428       0.650347
  22652.509       0.651284
  22655.054       0.65248
  22657.141       0.653503
  22659.626       0.653531
  22661.784       0.654945
  22664.244       0.654562
  22666.397       0.655329
  22668.764       0.654907
  22670.977       0.653736
  22673.459       0.653267
  22675.672       0.652473
  22678.126       0.652542
  22680.300       0.651225
  22682.810       0.651724
  22684.967       0.652323
  22687.388       0.652768
  22689.601       0.652796
  22692.154       0.65388
  22694.348       0.653854
  22696.879       0.653628
  22699.057       0.653964
  22701.580       0.652553
  22703.729       0.652672
  22706.271       0.651428
  22708.450       0.650513
  22711.019       0.649213
  22713.281       0.648771
  22715.825       0.647681
  22717.939       0.647084
  22720.458       0.645701
  22722.666       0.6445
  22725.212       0.64241
  22727.445       0.641963
  22730.027       0.640891
  22732.235       0.640426
  22734.886       0.640197
  22737.056       0.639817
  22739.614       0.639778
  22741.800       0.639145
  22744.485       0.638297
  22746.704       0.637399
  22749.315       0.637448
  22751.599       0.636562
  22754.149       0.6359
  22756.420       0.63611
  22759.044       0.635627
  22761.275       0.635618
  22763.918       0.636485
  22766.329       0.637348
  22768.812       0.637916
  22771.245       0.638364
  22773.749       0.639413
  22776.230       0.639676
  22778.688       0.64059
  22781.303       0.640662
  22783.727       0.641562
  22786.452       0.641021
  22788.806       0.641018
  22791.518       0.639931
  22793.912       0.639805
  22796.604       0.638758
  22798.972       0.637858
  22801.769       0.637913
  22804.297       0.637412
  22806.886       0.636982
  22809.608       0.637543
  22812.121       0.637136
  22814.844       0.637593
  22817.316       0.637433
  22820.097       0.637607
  22822.615       0.638411
  22825.403       0.638773
  22827.990       0.639752
  22830.534       0.639849
  22833.220       0.64012
  22835.750       0.639637
  22838.588       0.639492
  22841.090       0.638575
  22843.954       0.638073
  22846.450       0.637186
  22849.268       0.635758
  22851.870       0.634795
  22854.457       0.633892
  22857.244       0.632441
  22859.842       0.630427
  22862.680       0.629628
  22865.110       0.627784
  22867.959       0.627528
  22870.455       0.626678
  22873.207       0.625523
  22876.008       0.62482
  22878.547       0.624948
  22881.453       0.624689
  22883.970       0.623879
  22886.755       0.623704
  22889.279       0.62365
  22892.063       0.623378
  22894.782       0.624395
  22897.465       0.624479
  22900.358       0.625555
  22902.859       0.62599
  22905.771       0.625849
  22908.329       0.626634
  22911.165       0.627623
  22913.909       0.627907
  22916.586       0.628245
  22919.585       0.628169
  22922.095       0.628358
  22924.986       0.628229
  22927.662       0.626761
  22930.434       0.626645
  22933.365       0.626238
  22935.983       0.62565
  22939.006       0.625685
  22941.548       0.625158
  22944.473       0.624573
  22947.252       0.624842
  22950.005       0.624793
  22952.932       0.623854
  22955.588       0.624308
  22958.574       0.623976