File: root/data/Sn_foil_311.xdi
# XDI/1.0 Demeter/0.9.26
# Beamline.name: BM08-LISA
# Column.1: energy eV
# Column.2: mutrans
# Element.edge: K
# Element.symbol: Sn
# Facility.name: ESRF
# Facility.xray_source: Bending magnet
# Mono.d_spacing: 1.637039
# Mono.name: Si(311)
# Mono.notes: LNT cooled
# Sample.formula: Sn
# Sample.name: Sn metal foil
# Scan.start_time: 2023-09-30T20:51:25
# ///
# room temperature
#------------------------
#   energy  mutrans
  28853.817       0.0794211
  28858.269       0.078645
  28863.083       0.0784554
  28868.003       0.0779629
  28872.721       0.0776771
  28877.926       0.0775716
  28882.999       0.0775551
  28887.855       0.0774102
  28892.961       0.0770802
  28897.797       0.0770913
  28902.600       0.0773227
  28907.807       0.0769342
  28912.752       0.0768063
  28917.699       0.0767739
  28922.653       0.0767659
  28927.327       0.0765556
  28932.303       0.076478
  28937.467       0.0757193
  28942.332       0.0753567
  28947.338       0.0752152
  28952.393       0.0748797
  28957.081       0.0748004
  28962.163       0.0748898
  28967.032       0.0748775
  28971.935       0.0750407
  28977.186       0.0755381
  28982.093       0.0753557
  28986.728       0.0753935
  28991.879       0.0756807
  28996.743       0.0759363
  29001.671       0.076402
  29006.962       0.076419
  29011.749       0.0766023
  29016.577       0.0757791
  29021.647       0.0758649
  29026.266       0.0757162
  29031.503       0.0763648
  29036.655       0.0761235
  29041.279       0.0761366
  29046.401       0.0761735
  29051.125       0.0765238
  29056.023       0.0767128
  29061.170       0.077234
  29066.139       0.0772424
  29070.976       0.0777028
  29076.089       0.0790118
  29080.638       0.0787504
  29085.755       0.0795166
  29090.782       0.0802809
  29095.674       0.0812874
  29100.738       0.0819341
  29105.683       0.0830085
  29110.315       0.0843183
  29115.374       0.0852332
  29120.319       0.0869753
  29125.270       0.088822
  29130.558       0.0908162
  29135.183       0.0935052
  29140.105       0.0965685
  29145.267       0.100504
  29149.999       0.104816
  29155.189       0.110584
  29160.254       0.118228
  29165.137       0.128022
  29170.220       0.141014
  29175.077       0.16043
  29180.134       0.192331
  29185.447       0.24836
  29185.904       0.255785
  29186.347       0.26423
  29186.936       0.275716
  29187.374       0.285124
  29187.807       0.294988
  29188.265       0.305728
  29188.727       0.31726
  29189.374       0.334672
  29189.866       0.348945
  29190.377       0.364083
  29190.898       0.38099
  29191.584       0.406184
  29192.076       0.427473
  29192.548       0.450694
  29193.006       0.476549
  29193.473       0.506436
  29194.052       0.54999
  29194.481       0.587579
  29194.904       0.628696
  29195.333       0.674437
  29195.927       0.745017
  29196.385       0.80406
  29196.857       0.869286
  29197.339       0.940165
  29197.831        1.01671
  29198.522        1.13128
  29199.034        1.22223
  29199.531        1.31793
  29200.003        1.41346
  29200.622        1.5437
  29201.060        1.63616
  29201.489        1.7216
  29201.908        1.79996
  29202.331        1.86751
  29202.901        1.93998
  29203.325        1.97918
  29203.774        2.00469
  29204.231        2.01972
  29204.709        2.0233
  29205.376        2.0156
  29205.883        2.00014
  29206.410        1.97967
  29206.916        1.95698
  29207.589        1.92145
  29208.071        1.8948
  29208.524        1.86964
  29208.978        1.84615
  29209.421        1.82319
  29210.001        1.79817
  29210.420        1.78191
  29210.854        1.76854
  29211.308        1.7558
  29211.932        1.7374
  29212.414        1.728
  29212.911        1.721
  29213.423        1.71509
  29213.964        1.71011
  29214.691        1.70409
  29215.203        1.70001
  29215.700        1.69723
  29216.173        1.69502
  29216.807        1.69225
  29217.251        1.69046
  29217.685        1.68966
  29218.124        1.6897
  29218.563        1.69082
  29219.177        1.69237
  29219.645        1.69429
  29220.123        1.69609
  29220.616        1.69919
  29221.123        1.70212
  29221.836        1.70586
  29222.362        1.70825
  29222.865        1.71065
  29223.372        1.71238
  29224.002        1.71444
  29224.450        1.71539
  29224.894        1.71526
  29225.314        1.7152
  29225.738        1.71468
  29226.309        1.71326
  29226.734        1.71102
  29227.183        1.70886
  29227.632        1.70693
  29228.105        1.70365
  29228.774        1.69859
  29229.281        1.69448
  29229.799        1.69014
  29230.311        1.68569
  29230.975        1.67885
  29231.907        1.66836
  29233.074        1.65529
  29234.075        1.64675
  29235.095        1.64321
  29236.213        1.64376
  29237.586        1.65026
  29238.933        1.66138
  29240.018        1.67273
  29241.190        1.68588
  29242.353        1.70033
  29243.603        1.713
  29245.176        1.72561
  29246.579        1.7366
  29248.001        1.74749
  29249.183        1.75467
  29250.527        1.75867
  29251.979        1.7578
  29253.548        1.75359
  29255.054        1.74398
  29256.394        1.73273
  29257.812        1.71828
  29259.172        1.70679
  29260.859        1.69409
  29262.375        1.68394
  29263.867        1.67623
  29265.281        1.67132
  29266.769        1.6699
  29268.609        1.6716
  29270.302        1.67589
  29271.839        1.68195
  29273.440        1.68922
  29275.168        1.69746
  29276.950        1.70651
  29278.806        1.71775
  29280.461        1.72781
  29282.298        1.7387
  29284.175        1.74456
  29286.056        1.746
  29287.888        1.74432
  29289.614        1.73808
  29291.368        1.7303
  29293.437        1.72191
  29295.265        1.71357
  29296.977        1.70665
  29299.017        1.70054
  29301.081        1.69716
  29303.132        1.69515
  29304.873        1.69415
  29306.958        1.69577
  29309.265        1.69817
  29311.287        1.70114
  29313.226        1.70553
  29315.386        1.7096
  29317.605        1.71341
  29319.702        1.71753
  29321.593        1.72065
  29323.926        1.72222
  29326.166        1.72321
  29328.156        1.72424
  29330.294        1.72334
  29332.698        1.72471
  29334.851        1.7233
  29337.073        1.72106
  29339.448        1.71904
  29341.956        1.7166
  29344.185        1.7143
  29346.625        1.71248
  29349.193        1.71048
  29351.413        1.70948
  29353.677        1.70933
  29356.242        1.70927
  29358.665        1.7087
  29361.033        1.70916
  29363.590        1.70998
  29366.147        1.71129
  29368.531        1.71116
  29371.296        1.71307
  29373.938        1.71378
  29376.531        1.71388
  29379.312        1.71362
  29382.064        1.71322
  29384.426        1.71266
  29387.303        1.71109
  29389.972        1.70934
  29392.479        1.70761
  29395.392        1.70528
  29398.063        1.70245
  29400.803        1.70053
  29403.811        1.69869
  29406.612        1.69643
  29409.522        1.69431
  29412.626        1.69413
  29415.315        1.69339
  29418.281        1.69337
  29421.204        1.69291
  29423.840        1.69287
  29427.085        1.69291
  29429.876        1.69364
  29432.786        1.69437
  29436.082        1.69358
  29438.795        1.69457
  29442.128        1.6939
  29445.204        1.69264
  29448.013        1.69103
  29451.214        1.68912
  29454.178        1.6867
  29457.122        1.68458
  29460.449        1.68247
  29463.400        1.67974
  29466.842        1.6772
  29469.953        1.67439
  29473.174        1.67269
  29476.549        1.67291
  29479.697        1.66897
  29483.088        1.66788
  29486.218        1.66631
  29489.616        1.66525
  29492.995        1.6645
  29496.186        1.66421
  29499.815        1.66356
  29502.987        1.66373
  29506.579        1.66327
  29509.857        1.66303
  29513.181        1.66311
  29516.740        1.66252
  29520.046        1.66145
  29523.775        1.66102
  29527.058        1.65911
  29530.869        1.65739
  29534.257        1.65512
  29538.165        1.65341
  29541.625        1.65259
  29545.311        1.65003
  29548.823        1.64886
  29552.290        1.6466
  29556.118        1.6447
  29559.547        1.64373
  29563.502        1.64185
  29567.123        1.64024
  29571.069        1.63935
  29574.657        1.638
  29578.481        1.63756
  29582.061        1.63673
  29585.981        1.63634
  29589.678        1.63496
  29593.605        1.63433
  29597.454        1.63352
  29601.379        1.6325
  29605.390        1.63127
  29609.181        1.62989
  29613.144        1.62793
  29617.043        1.62741
  29621.073        1.62484
  29625.029        1.62366
  29629.137        1.62156
  29633.146        1.62001
  29637.210        1.61839
  29641.326        1.61704
  29645.308        1.61662
  29649.436        1.61446
  29653.586        1.61332
  29657.853        1.61185
  29662.015        1.61075
  29666.419        1.60911
  29670.458        1.60836
  29674.795        1.60737
  29678.891        1.60661
  29683.306        1.60572
  29687.455        1.60525
  29692.134        1.60461
  29696.190        1.60321
  29700.832        1.60225
  29705.243        1.60159
  29709.691        1.60049
  29714.060        1.59891
  29718.541        1.59722
  29723.174        1.59696
  29727.597        1.59651
  29732.466        1.59379
  29736.644        1.594
  29741.364        1.59165
  29745.773        1.59041
  29750.521        1.58979
  29755.271        1.58872
  29759.704        1.58699
  29764.755        1.58652
  29769.262        1.58521
  29773.942        1.5844
  29778.527        1.5826
  29783.184        1.58199
  29788.087        1.5817
  29792.636        1.57997
  29797.785        1.57956
  29802.337        1.57834
  29807.200        1.57711
  29811.973        1.57581
  29816.626        1.57516
  29821.774        1.57405
  29826.521        1.57315
  29831.519        1.57207
  29836.489        1.57082
  29841.104        1.56887
  29846.336        1.5676
  29851.050        1.56673
  29856.164        1.56503
  29861.228        1.56405
  29866.044        1.56256
  29871.250        1.56142
  29876.156        1.55998
  29881.115        1.55919
  29886.392        1.55851
  29891.441        1.55719
  29896.645        1.55623
  29901.938        1.55885
  29906.685        1.55487
  29912.048        1.55328
  29917.157        1.55223
  29922.309        1.55174
  29927.816        1.55002
  29932.874        1.54948
  29938.082        1.54814
  29943.646        1.54653
  29948.653        1.54576
  29954.180        1.54492
  29959.816        1.54423
  29964.823        1.54293
  29970.284        1.54234
  29975.752        1.54111
  29981.068        1.54018
  29986.653        1.54027
  29992.220        1.53908
  29997.562        1.5375
  30003.056        1.53716
  30008.649        1.5365
  30013.807        1.53567
  30019.558        1.53496
  30025.287        1.53335
  30030.631        1.53293
  30036.255        1.53247
  30042.072        1.53179
  30047.432        1.53033
  30053.285        1.53012
  30059.181        1.52881
  30064.832        1.52729
  30070.526        1.52643
  30076.351        1.52544
  30082.101        1.52349
  30087.947        1.52344
  30093.940        1.5228
  30099.836        1.52084
  30105.388        1.52037
  30111.362        1.52078
  30117.364        1.51815
  30123.307        1.51746
  30129.153        1.51651
  30135.235        1.51526
  30141.262        1.51378
  30147.001        1.51252
  30153.007        1.51111
  30159.218        1.51009
  30165.297        1.50922
  30171.014        1.50797
  30177.149        1.50665
  30183.323        1.50477