File: root/data/SnI2_311_100K.xdi
# XDI/1.0 Demeter/0.9.26
# Beamline.name: BM08-LISA
# Column.1: energy eV
# Column.2: mutrans
# Column.3: murefer
# Element.edge: K
# Element.symbol: Sn
# Facility.name: ESRF
# Facility.xray_source: Bending magnet
# Mono.d_spacing: 1.637039
# Mono.name: Si(311)
# Mono.notes: LNT cooled
# Sample.formula: SnI2
# Sample.name: Tin(II) iodide, stannous iodide
# Sample.reference: Sn metal foil
# Sample.temperature: 100 K
# Scan.start_time: 2023-09-28T18:18:06
# ///
#------------------------
#  energy  mutrans  murefer
  28854.179      -0.136309       0.0682694
  28858.506      -0.136738       0.0678487
  28863.197      -0.136967       0.0675051
  28868.075      -0.137254       0.0673407
  28872.740      -0.137615       0.0671563
  28877.902      -0.138089       0.0671298
  28882.942      -0.138439       0.0668573
  28887.779      -0.138692       0.066827
  28892.875      -0.138944       0.0666611
  28897.668      -0.13935       0.0663563
  28902.476      -0.139514       0.0665838
  28907.668      -0.140109       0.0662931
  28912.590      -0.140447       0.0660215
  28917.556      -0.140678       0.0660947
  28922.505      -0.140972       0.0659148
  28927.159      -0.141317       0.0657606
  28932.155      -0.141531       0.065653
  28937.290      -0.141942       0.065709
  28942.155      -0.142398       0.0656002
  28947.180      -0.142697       0.0654723
  28952.225      -0.14306       0.065578
  28956.923      -0.143267       0.0650537
  28962.019      -0.143738       0.0651951
  28966.849      -0.144032       0.06493
  28971.791      -0.144383       0.0649561
  28977.047      -0.144536       0.0649278
  28981.930      -0.144836       0.0651147
  28986.599      -0.145251       0.0649478
  28991.749      -0.145389       0.0650658
  28996.604      -0.145795       0.0652118
  29001.556      -0.146071       0.0655709
  29006.842      -0.146237       0.0656218
  29011.644      -0.146451       0.0659673
  29016.490      -0.146889       0.0660237
  29021.546      -0.147189       0.0663216
  29026.160      -0.147273       0.0668142
  29031.402      -0.147868       0.0668537
  29036.530      -0.148062       0.0673511
  29041.159      -0.148129       0.0678374
  29046.295      -0.148363       0.0682446
  29050.980      -0.148763       0.0684026
  29055.898      -0.148879       0.0688133
  29061.030      -0.148693       0.0693032
  29065.975      -0.149082       0.0692815
  29070.826      -0.149271       0.0697282
  29075.915      -0.149387       0.0695762
  29080.450      -0.1493       0.0701842
  29085.586      -0.149397       0.0705347
  29090.583      -0.149437       0.0708436
  29095.481      -0.149306       0.0716981
  29100.564      -0.149271       0.0725339
  29105.475      -0.1491       0.073542
  29110.136      -0.148972       0.0745714
  29115.195      -0.148714       0.0760789
  29120.106      -0.148327       0.0777227
  29125.081      -0.14785       0.0790656
  29130.349      -0.147198       0.0812966
  29134.960      -0.146338       0.0835689
  29139.902      -0.145505       0.0861596
  29145.005      -0.143822       0.0898543
  29149.727      -0.142311       0.0938248
  29154.927      -0.140142       0.0992846
  29159.929      -0.137121       0.106149
  29164.845      -0.133376       0.115223
  29169.928      -0.12803       0.127295
  29174.722      -0.120518       0.145092
  29179.828      -0.108158       0.173127
  29185.121      -0.0879702   0.220956
  29185.593      -0.0852432   0.227311
  29186.050      -0.0823334   0.233968
  29186.654      -0.0781069   0.244156
  29187.092      -0.0748829   0.252275
  29187.530      -0.0715891   0.260648
  29187.982      -0.0675749   0.269804
  29188.440      -0.0636657   0.279553
  29189.082      -0.0580213   0.293246
  29189.569      -0.0536202   0.304892
  29190.080      -0.0486373   0.316934
  29190.601      -0.0430692   0.330691
  29191.297      -0.0351737   0.350583
  29191.803      -0.0286142   0.367428
  29192.280      -0.0215543   0.38501
  29192.738      -0.0140126   0.404736
  29193.195      -0.00530675   0.426666
  29193.770       0.00708914   0.459115
  29194.189       0.0173341   0.486477
  29194.602       0.0285075   0.516471
  29195.011       0.0411645   0.549802
  29195.586       0.0602668   0.600097
  29196.034       0.0765707   0.643834
  29196.492       0.0946734   0.692398
  29196.959       0.114929       0.745559
  29197.436       0.137054       0.804374
  29198.128       0.171736       0.89418
  29198.639       0.200803       0.96831
  29199.146       0.233281        1.04784
  29199.633       0.268336        1.13241
  29200.266       0.321205        1.25299
  29200.714       0.36403        1.34628
  29201.162       0.409477        1.44113
  29201.591       0.45721        1.53514
  29202.020       0.505709        1.62535
  29202.585       0.568542        1.73559
  29203.004       0.611646        1.80555
  29203.442       0.650431        1.86584
  29203.895       0.683365        1.91304
  29204.358       0.709259        1.94812
  29205.006       0.732521        1.97427
  29205.508       0.74236        1.98122
  29206.025       0.746579        1.9778
  29206.546       0.746501        1.966
  29207.233       0.741759        1.94138
  29207.725       0.735959        1.91749
  29208.198       0.729416        1.89305
  29208.661       0.721907        1.867
  29209.109       0.713938        1.84138
  29209.689       0.703026        1.80939
  29210.113       0.694107        1.78792
  29210.537       0.684677        1.76854
  29210.981       0.675141        1.75136
  29211.585       0.662056        1.73252
  29212.049       0.652044        1.7211
  29212.531       0.642091        1.71056
  29213.028       0.632667        1.70199
  29213.555       0.623223        1.69487
  29214.267       0.611395        1.68597
  29214.784       0.603349        1.68087
  29215.295       0.595669        1.67674
  29215.778       0.588713        1.67372
  29216.417       0.580058        1.66988
  29216.875       0.574332        1.6678
  29217.314       0.56917        1.66595
  29217.753       0.564442        1.66507
  29218.187       0.560254        1.66439
  29218.782       0.555703        1.66437
  29219.236       0.552613        1.66514
  29219.694       0.549915        1.66648
  29220.172       0.547711        1.66889
  29220.660       0.545792        1.67067
  29221.357       0.543601        1.67426
  29221.879       0.542212        1.67763
  29222.396       0.541074        1.68018
  29222.904       0.540252        1.68326
  29223.558       0.53953        1.68692
  29224.016       0.538809        1.68862
  29224.465       0.538445        1.6905
  29224.894       0.537774        1.69202
  29225.324       0.537466        1.69292
  29225.885       0.537102        1.69365
  29226.305       0.53683        1.69408
  29226.739       0.536078        1.69308
  29227.173       0.535467        1.69281
  29227.637       0.534769        1.69111
  29228.271       0.53353        1.68868
  29228.754       0.532438        1.68644
  29229.272       0.531143        1.68356
  29229.784       0.529653        1.68044
  29230.467       0.527687        1.67488
  29231.429       0.524464        1.66618
  29232.625       0.520302        1.65351
  29233.621       0.516575        1.64195
  29234.622       0.513196        1.63253
  29235.696       0.510093        1.62675
  29237.029       0.506581        1.62604
  29238.406       0.503881        1.63119
  29239.524       0.502577        1.63966
  29240.721       0.502589        1.65193
  29241.874       0.504271        1.66499
  29243.080       0.507824        1.67786
  29244.585       0.513618        1.69166
  29246.002       0.519152        1.70282
  29247.483       0.525187        1.7149
  29248.685       0.530376        1.72484
  29250.009       0.535537        1.73259
  29251.407       0.540272        1.73761
  29252.942       0.544302        1.73703
  29254.492       0.547827        1.73184
  29255.871       0.55109        1.72345
  29257.289       0.554947        1.71054
  29258.590       0.558826        1.69813
  29260.189       0.563015        1.68469
  29261.734       0.566693        1.67312
  29263.295       0.569826        1.66305
  29264.723       0.571364        1.65444
  29266.152       0.571362        1.64927
  29267.894       0.569139        1.64719
  29269.597       0.5659        1.64858
  29271.193       0.562373        1.65255
  29272.789       0.558238        1.65842
  29274.434       0.554218        1.66556
  29276.128       0.550193        1.67299
  29278.057       0.545545        1.68294
  29279.766       0.540935        1.69358
  29281.534       0.536188        1.70533
  29283.298       0.532565        1.71478
  29285.203       0.529296        1.72078
  29287.124       0.526527        1.72336
  29288.839       0.52497        1.72047
  29290.486       0.524283        1.71544
  29292.515       0.524099        1.70747
  29294.456       0.524742        1.69907
  29296.192       0.526142        1.6912
  29298.109       0.528028        1.68413
  29300.105       0.529767        1.67891
  29302.268       0.531617        1.67516
  29304.020       0.533433        1.67319
  29305.967       0.535606        1.67299
  29308.215       0.538467        1.67443
  29310.354       0.541329        1.67646
  29312.283       0.54407        1.67948
  29314.291       0.545899        1.68315
  29316.530       0.547251        1.68748
  29318.730       0.547278        1.69173
  29320.557       0.546655        1.69523
  29322.713       0.545214        1.69814
  29325.056       0.543394        1.69988
  29327.115       0.541734        1.70119
  29329.115       0.540184        1.70134
  29331.400       0.538261        1.70089
  29333.715       0.53741        1.70096
  29335.918       0.536325        1.69959
  29338.091       0.535956        1.69739
  29340.697       0.535669        1.69469
  29343.009       0.536047        1.69228
  29345.252       0.536717        1.69085
  29347.806       0.537554        1.68899
  29350.183       0.538312        1.68722
  29352.329       0.539153        1.68601
  29354.726       0.540212        1.68549
  29357.350       0.541058        1.68529
  29359.650       0.541891        1.68442
  29361.974       0.542374        1.68454
  29364.713       0.542874        1.68496
  29367.097       0.542453        1.68581
  29369.576       0.541461        1.68606
  29372.375       0.540238        1.68743
  29374.978       0.538102        1.68758
  29377.468       0.536217        1.68833
  29380.397       0.534081        1.68899
  29382.769       0.531737        1.68782
  29385.314       0.529502        1.68699
  29388.171       0.527266        1.68603
  29390.678       0.525409        1.68431
  29393.244       0.524044        1.6823
  29396.147       0.522657        1.68014
  29398.848       0.522075        1.67753
  29401.539       0.521884        1.6761
  29404.636       0.522176        1.67351
  29407.329       0.522734        1.67112
  29410.303       0.52332        1.6699
  29413.244       0.524063        1.66821
  29415.844       0.525094        1.66693
  29418.835       0.526392        1.66696
  29421.624       0.527073        1.66651
  29424.419       0.527563        1.66635
  29427.491       0.52776        1.66687
  29430.361       0.527968        1.66682
  29433.375       0.52757        1.66771
  29436.439       0.527427        1.66788
  29439.399       0.526217        1.66783
  29442.549       0.525558        1.6674
  29445.481       0.523963        1.66715
  29448.246       0.523046        1.66527
  29451.566       0.521257        1.66388
  29454.341       0.519841        1.66211
  29457.489       0.517909        1.65959
  29460.771       0.5163        1.65777
  29463.737       0.514514        1.65474
  29467.199       0.513105        1.6528
  29470.246       0.511785        1.651
  29473.476       0.510697        1.64921
  29476.901       0.509688        1.64763
  29479.836       0.508646        1.64471
  29483.366       0.508061        1.64321
  29486.466       0.507881        1.6422
  29489.899       0.507663        1.64106
  29493.238       0.507887        1.64011
  29496.494       0.508301        1.64009
  29500.093       0.508646        1.64015
  29503.236       0.509165        1.63999
  29506.967       0.509668        1.63975
  29510.086       0.509842        1.63973
  29513.619       0.51001        1.63965
  29517.088       0.509696        1.63859
  29520.439       0.509162        1.63769
  29524.144       0.508497        1.63713
  29527.451       0.507313        1.63604
  29531.282       0.505727        1.6342
  29534.796       0.503818        1.63204
  29538.559       0.502195        1.6305
  29542.024       0.50021        1.6285
  29545.570       0.498518        1.6259
  29549.152       0.496499        1.62361
  29552.689       0.494832        1.62223
  29556.467       0.493363        1.62012
  29559.952       0.492237        1.61839
  29564.016       0.491461        1.61685
  29567.458       0.491101        1.61557
  29571.494       0.490901        1.61397
  29574.827       0.491087        1.61319
  29578.796       0.491408        1.61282
  29582.326       0.491515        1.61191
  29586.291       0.491601        1.61189
  29589.943       0.491798        1.61088
  29593.926       0.492092        1.61041
  29597.679       0.492033        1.61003
  29601.749       0.492034        1.60956
  29605.455       0.491689        1.60865
  29609.367       0.49141        1.60811
  29613.244       0.490853        1.60624
  29617.153       0.490447        1.60587
  29621.153       0.489609        1.60424
  29625.135       0.488382        1.60238
  29629.192       0.48717        1.60123
  29633.140       0.485939        1.59917
  29637.271       0.484384        1.59817
  29641.166       0.482331        1.59672
  29645.308       0.480637        1.59502
  29649.431       0.478848        1.59398
  29653.596       0.47712        1.59195
  29657.863       0.475794        1.59004
  29662.000       0.474438        1.58897
  29666.289       0.473552        1.58815
  29670.262       0.47278        1.58716
  29674.704       0.471941        1.58583
  29678.660       0.471144        1.58528
  29683.225       0.470664        1.58452
  29687.380       0.470245        1.5841
  29691.893       0.47024        1.58332
  29696.059       0.470232        1.58236
  29700.797       0.470455        1.5815
  29704.981       0.471111        1.58118
  29709.439       0.471129        1.57996
  29713.954       0.471717        1.57893
  29718.334       0.4718        1.57723
  29723.114       0.471699        1.57674
  29727.506       0.471469        1.57541
  29732.153       0.471288        1.57392
  29736.417       0.470468        1.57325
  29741.122       0.469443        1.57148
  29745.661       0.468122        1.57022
  29750.278       0.466773        1.5689
  29754.968       0.465022        1.56833
  29759.597       0.46332        1.56699
  29764.558       0.461804        1.56607
  29768.806       0.460324        1.5646
  29773.668       0.458594        1.56357
  29778.243       0.457194        1.5623
  29782.967       0.455851        1.56223
  29787.889       0.455532        1.56071
  29792.585       0.45411        1.56041
  29797.506       0.453751        1.55935
  29802.124       0.453526        1.55893
  29806.840       0.453486        1.55747
  29811.714       0.453664        1.55728
  29816.433       0.454008        1.55608
  29821.596       0.454078        1.55515
  29826.292       0.454413        1.55403
  29831.245       0.454388        1.55293
  29836.102       0.454415        1.55219
  29840.925       0.454614        1.55121
  29846.025       0.454321        1.55102
  29850.908       0.453701        1.54961
  29855.919       0.452806        1.54801
  29861.096       0.451874        1.54638
  29865.835       0.450662        1.54573
  29871.025       0.449466        1.5447
  29875.911       0.44836        1.5437
  29880.957       0.447091        1.54235
  29886.458       0.445825        1.54107
  29891.349       0.444844        1.54014
  29896.640       0.443566        1.53924
  29901.682       0.443622        1.54269
  29906.614       0.441438        1.5372
  29912.038       0.440351        1.53596
  29917.260       0.439274        1.53523
  29922.437       0.438652        1.53435
  29927.897       0.438022        1.53352
  29932.909       0.437731        1.53228
  29938.256       0.437368        1.53181
  29943.697       0.437132        1.53084
  29948.950       0.436897        1.52979
  29954.462       0.436486        1.52842
  29959.878       0.436163        1.52761
  29964.967       0.435403        1.52676
  29970.392       0.435269        1.52597
  29976.014       0.434857        1.52523
  29981.166       0.434183        1.52423
  29986.710       0.434276        1.52402
  29992.333       0.433124        1.52211
  29997.387       0.43231        1.52128
  30002.999       0.431628        1.51986
  30008.412       0.430798        1.51933
  30013.765       0.429731        1.51826
  30019.507       0.428924        1.51784
  30025.137       0.427822        1.51704
  30030.393       0.426597        1.51602
  30036.167       0.425278        1.51478
  30041.814       0.424429        1.51396
  30047.370       0.423204        1.51313
  30053.089       0.422102        1.51214
  30059.016       0.42114        1.51123
  30064.568       0.420399        1.50984
  30070.123       0.419895        1.50961
  30076.103       0.419378        1.50827
  30082.029       0.418816        1.50771
  30087.693       0.418538        1.50758
  30093.650       0.418242        1.50661
  30099.469       0.417828        1.50508
  30105.181       0.417329        1.5048
  30111.087       0.417477        1.50452
  30117.349       0.416574        1.50297
  30123.255       0.416205        1.50133
  30129.039       0.415589        1.50044
  30135.110       0.414942        1.50004
  30141.111       0.414207        1.49866
  30146.876       0.413372        1.49781
  30152.898       0.412339        1.49642
  30159.171       0.411382        1.49585
  30164.969       0.410363        1.49498
  30170.857       0.409568        1.49384
  30177.107       0.408479        1.49285