File: root/data/SnI2_311.xdi
# XDI/1.0 Demeter/0.9.26
# Beamline.name: BM08-LISA
# Column.1: energy eV
# Column.2: mutrans
# Column.3: murefer
# Element.edge: K
# Element.symbol: Sn
# Facility.name: ESRF
# Facility.xray_source: Bending magnet
# Mono.d_spacing: 1.637039
# Mono.name: Si(311)
# Mono.notes: LNT cooled
# Sample.formula: SnI2
# Sample.name: Tin(II) iodide, stannous iodide
# Sample.reference: Sn metal foil
# Scan.start_time: 2023-09-30T18:16:17
# ///
# room temperature
#------------------------
#  energy  mutrans  murefer
  28853.941      -0.0434942   0.078829
  28858.425      -0.0441949   0.0788312
  28863.221      -0.0449018   0.078579
  28868.161      -0.0451277   0.0787308
  28872.864      -0.0455506   0.0783816
  28878.055      -0.0459083   0.0780713
  28883.152      -0.0461389   0.0783226
  28887.984      -0.0463731   0.077932
  28893.095      -0.0462905   0.0779144
  28897.959      -0.0468335   0.0777499
  28902.743      -0.0462956   0.0778449
  28907.950      -0.0474775   0.0773165
  28912.924      -0.0477168   0.0773044
  28917.838      -0.0480684   0.0770761
  28922.806      -0.0479536   0.077114
  28927.499      -0.0480548   0.0771926
  28932.446      -0.0484049   0.0768393
  28937.620      -0.0486505   0.0765691
  28942.500      -0.0490242   0.076481
  28947.481      -0.0492423   0.0762384
  28952.560      -0.0495759   0.0760638
  28957.248      -0.0501132   0.0761269
  28962.321      -0.0500003   0.0759332
  28967.209      -0.050374   0.0758071
  28972.094      -0.050763   0.075985
  28977.325      -0.050804   0.0759477
  28982.256      -0.0511768   0.0756546
  28986.872      -0.0513192   0.0758027
  28992.023      -0.0514043   0.075587
  28996.897      -0.0519279   0.0759584
  29001.796      -0.0520747   0.0760659
  29007.101      -0.0522905   0.075919
  29011.918      -0.0548278   0.0763083
  29016.721      -0.0523385   0.0760914
  29021.815      -0.0526692   0.076611
  29026.439      -0.0527439   0.0762771
  29031.652      -0.0543074   0.0773427
  29036.824      -0.0544462   0.0775683
  29041.433      -0.0544237   0.0775996
  29046.555      -0.0545761   0.0776422
  29051.298      -0.0547638   0.0781302
  29056.163      -0.0547443   0.0782449
  29061.329      -0.0554629   0.0788771
  29066.323      -0.0545108   0.0787737
  29071.145      -0.0545941   0.0790371
  29076.277      -0.0536601   0.0799395
  29080.841      -0.0543541   0.0801125
  29085.924      -0.0544169   0.0805258
  29090.975      -0.0540737   0.0811917
  29095.853      -0.0535269   0.0819636
  29100.903      -0.0534974   0.0828649
  29105.896      -0.0538439   0.0839537
  29110.499      -0.0533067   0.0847787
  29115.558      -0.0527315   0.0863104
  29120.517      -0.0519449   0.0879497
  29125.440      -0.0511806   0.0894551
  29130.737      -0.0499871   0.0919153
  29135.396      -0.0488051   0.0942911
  29140.275      -0.0473209   0.097622
  29145.452      -0.0439814   0.101321
  29150.169      -0.0416738   0.105378
  29155.320      -0.0384245   0.111202
  29160.395      -0.0340385   0.118437
  29165.273      -0.0282762   0.128339
  29170.346      -0.0205218   0.141392
  29175.218      -0.00905945   0.160335
  29180.246       0.00996874   0.191444
  29185.544       0.0412482   0.24513
  29185.992       0.0457384   0.252644
  29186.435       0.0503123   0.259732
  29187.024       0.05719   0.271429
  29187.462       0.0625774   0.28037
  29187.904       0.0674586   0.290059
  29188.362       0.0729724   0.300342
  29188.829       0.0787961   0.311452
  29189.476       0.0877936   0.327669
  29189.973       0.0951118   0.340937
  29190.484       0.102901       0.355235
  29191.005       0.111707       0.371079
  29191.701       0.124795       0.395322
  29192.207       0.135863       0.416061
  29192.679       0.147562       0.438099
  29193.127       0.160868       0.462835
  29193.575       0.175044       0.489975
  29194.150       0.195733       0.530204
  29194.564       0.212986       0.563993
  29194.977       0.231994       0.601523
  29195.401       0.252978       0.642743
  29195.990       0.285237       0.707052
  29196.448       0.312356       0.76158
  29196.925       0.342674       0.823046
  29197.422       0.376177       0.891064
  29197.928       0.412649       0.96462
  29198.639       0.468008        1.07817
  29199.156       0.512958        1.16827
  29199.657       0.560052        1.26077
  29200.130       0.608373        1.35732
  29200.739       0.675262        1.49066
  29201.172       0.725313        1.58724
  29201.601       0.774034        1.68056
  29202.020       0.820533        1.76827
  29202.444       0.863483        1.84623
  29203.018       0.91224        1.93263
  29203.447       0.941352        1.97985
  29203.900       0.963493        2.01509
  29204.363       0.979231        2.03843
  29204.841       0.989057        2.04746
  29205.508       0.993775        2.04385
  29206.020       0.993203        2.03128
  29206.541       0.989599        2.01196
  29207.048       0.984512        1.98839
  29207.715       0.975386        1.95207
  29208.188       0.967621        1.92429
  29208.641       0.959587        1.89783
  29209.090       0.950645        1.87118
  29209.524       0.941572        1.84826
  29210.104       0.928836        1.82085
  29210.528       0.919206        1.80287
  29210.961       0.909169        1.78742
  29211.415       0.899366        1.77432
  29212.044       0.886319        1.75997
  29212.526       0.876826        1.75051
  29213.033       0.867896        1.74324
  29213.545       0.859602        1.73687
  29214.086       0.851843        1.73099
  29214.803       0.84172        1.72455
  29215.305       0.835758        1.72135
  29215.803       0.830366        1.71843
  29216.271       0.825262        1.71639
  29216.895       0.819318        1.7141
  29217.339       0.815666        1.7118
  29217.778       0.812064        1.7107
  29218.216       0.808607        1.71094
  29218.660       0.805929        1.71091
  29219.270       0.803399        1.71316
  29219.743       0.801694        1.71537
  29220.221       0.800497        1.7173
  29220.723       0.799572        1.72001
  29221.231       0.798801        1.72326
  29221.943       0.798138        1.72664
  29222.465       0.797827        1.72942
  29222.972       0.797635        1.73228
  29223.470       0.797229        1.73381
  29224.104       0.797069        1.73698
  29224.548       0.797252        1.73893
  29224.992       0.797296        1.7388
  29225.407       0.796488        1.74015
  29225.836       0.795535        1.73919
  29226.402       0.794572        1.73916
  29226.827       0.794107        1.73836
  29227.276       0.793045        1.736
  29227.729       0.791682        1.73521
  29228.213       0.790719        1.73276
  29228.886       0.788653        1.72795
  29229.389       0.786757        1.725
  29229.911       0.784852        1.72182
  29230.423       0.782621        1.71724
  29231.087       0.779641        1.71067
  29232.010       0.775135        1.70024
  29233.177       0.769332        1.68723
  29234.173       0.765293        1.67611
  29235.203       0.762432        1.66962
  29236.321       0.760198        1.66802
  29237.693       0.759617        1.67257
  29239.031       0.760361        1.68034
  29240.106       0.762354        1.69227
  29241.268       0.76534        1.70542
  29242.436       0.769304        1.71884
  29243.686       0.7747        1.73211
  29245.264       0.781261        1.74595
  29246.652       0.785637        1.75622
  29248.064       0.791297        1.76795
  29249.247       0.796762        1.77673
  29250.596       0.802199        1.78304
  29252.062       0.806679        1.78539
  29253.636       0.810036        1.78189
  29255.128       0.812411        1.77292
  29256.467       0.813625        1.76319
  29257.890       0.814416        1.74805
  29259.250       0.814505        1.7359
  29260.932       0.814287        1.72214
  29262.444       0.814044        1.71123
  29263.946       0.813326        1.70125
  29265.360       0.813163        1.69553
  29266.852       0.810624        1.69145
  29268.702       0.808702        1.69236
  29270.375       0.806837        1.69536
  29271.898       0.805137        1.70007
  29273.494       0.803069        1.7073
  29275.227       0.801223        1.71548
  29277.004       0.799433        1.72382
  29278.855       0.797578        1.73509
  29280.506       0.796264        1.74545
  29282.333       0.794524        1.7578
  29284.219       0.794048        1.7662
  29286.100       0.792381        1.76914
  29287.928       0.790547        1.76834
  29289.663       0.78954        1.76331
  29291.417       0.788462        1.75672
  29293.481       0.78771        1.74777
  29295.310       0.786808        1.73922
  29297.021       0.786715        1.73205
  29299.056       0.787814        1.72581
  29301.121       0.787149        1.72125
  29303.156       0.788064        1.7185
  29304.903       0.788905        1.71753
  29306.983       0.790142        1.71833
  29309.289       0.791457        1.72026
  29311.311       0.79295        1.72279
  29313.250       0.794265        1.72589
  29315.415       0.795761        1.73072
  29317.635       0.796559        1.73548
  29319.727       0.797117        1.73929
  29321.622       0.799276        1.74302
  29323.961       0.798121        1.74476
  29326.201       0.797313        1.74584
  29328.191       0.796892        1.74601
  29330.333       0.796206        1.74586
  29332.732       0.795168        1.74724
  29334.875       0.794277        1.74658
  29337.098       0.793955        1.74471
  29339.473       0.7938        1.74186
  29341.976       0.793279        1.73942
  29344.209       0.793057        1.73647
  29346.650       0.793046        1.73475
  29349.223       0.792766        1.73379
  29351.433       0.792958        1.73284
  29353.712       0.793018        1.73191
  29356.281       0.793533        1.73168
  29358.709       0.793899        1.73107
  29361.068       0.79359        1.73078
  29363.624       0.794113        1.73181
  29366.166       0.794554        1.73298
  29368.541       0.792761        1.73237
  29371.306       0.792118        1.73412
  29373.928       0.790615        1.73429
  29376.506       0.789454        1.73499
  29379.277       0.787959        1.73579
  29382.039       0.786481        1.73454
  29384.392       0.785422        1.73398
  29387.258       0.783546        1.73327
  29389.923       0.782107        1.73142
  29392.425       0.781249        1.72954
  29395.308       0.780472        1.72666
  29397.994       0.779592        1.72412
  29400.719       0.778539        1.72216
  29403.712       0.778306        1.72015
  29406.518       0.777981        1.71782
  29409.409       0.777795        1.71576
  29412.522       0.776952        1.71504
  29415.221       0.777153        1.71448
  29418.153       0.77724        1.71372
  29421.100       0.777826        1.71306
  29423.726       0.778064        1.71268
  29426.927       0.778253        1.71259
  29429.747       0.778249        1.7129
  29432.642       0.778202        1.71322
  29435.983       0.779646        1.71451
  29438.701       0.777466        1.71391
  29441.999       0.777355        1.71347
  29445.100       0.776119        1.71254
  29447.894       0.775184        1.71144
  29451.085       0.774269        1.70869
  29454.069       0.773291        1.70724
  29456.983       0.771835        1.70496
  29460.320       0.770371        1.70215
  29463.266       0.768633        1.69978
  29466.688       0.767305        1.6978
  29469.824       0.766121        1.69552
  29473.005       0.764794        1.69314
  29476.415       0.763525        1.69223
  29479.553       0.762705        1.68936
  29482.934       0.762472        1.68773
  29486.078       0.761195        1.68628
  29489.427       0.760489        1.68519
  29492.856       0.760267        1.68414
  29496.032       0.76052        1.68395
  29499.666       0.75995        1.68338
  29502.833       0.760108        1.68321
  29506.419       0.76005        1.68259
  29509.812       0.76029        1.68235
  29513.136       0.759998        1.68269
  29516.700       0.759313        1.6816
  29519.971       0.758625        1.68058
  29523.701       0.757805        1.67953
  29526.978       0.758095        1.67823
  29530.764       0.756236        1.67623
  29534.158       0.754531        1.67449
  29538.056       0.753175        1.67234
  29541.526       0.751661        1.67035
  29545.176       0.750433        1.66814
  29548.708       0.748777        1.6662
  29552.135       0.747464        1.66369
  29555.973       0.746256        1.66117
  29559.378       0.745133        1.65961
  29563.327       0.744444        1.6587
  29566.938       0.743465        1.65679
  29570.875       0.743172        1.65549
  29574.467       0.74297        1.65495
  29578.256       0.742608        1.65403
  29581.871       0.742779        1.65362
  29585.746       0.742565        1.65221
  29589.478       0.742385        1.65235
  29593.350       0.74268        1.65112
  29597.244       0.741874        1.65062
  29601.123       0.741696        1.6499
  29605.179       0.74089        1.64897
  29608.926       0.740204        1.6479
  29612.939       0.739264        1.64702
  29616.762       0.738267        1.64611
  29620.838       0.737941        1.6436
  29624.728       0.736875        1.64239
  29628.886       0.735823        1.64152
  29632.834       0.734419        1.63916
  29636.959       0.733401        1.63717
  29641.005       0.731851        1.63603
  29645.047       0.730002        1.63541
  29649.100       0.728407        1.63321
  29653.315       0.727268        1.63189
  29657.506       0.72621        1.63038
  29661.723       0.725252        1.62804
  29666.082       0.724521        1.62774
  29670.166       0.723622        1.6266
  29674.458       0.723064        1.62508
  29678.594       0.722186        1.62432
  29682.979       0.721739        1.62342
  29687.148       0.720644        1.62298
  29691.832       0.720832        1.62279
  29695.878       0.719974        1.62149
  29700.565       0.719762        1.62059
  29704.931       0.722763        1.6209
  29709.424       0.719284        1.618
  29713.717       0.71911        1.61731
  29718.263       0.718761        1.61642
  29722.836       0.718119        1.61535
  29727.279       0.717679        1.6149
  29732.158       0.717319        1.61318
  29736.311       0.71689        1.61213
  29741.066       0.715365        1.61115
  29745.409       0.713941        1.60937
  29750.192       0.712763        1.60815
  29754.846       0.711809        1.60682
  29759.360       0.710668        1.6055
  29764.406       0.709488        1.60395
  29768.887       0.70796        1.60273
  29773.602       0.70691        1.60219
  29778.122       0.705811        1.60107
  29782.845       0.704913        1.60037
  29787.691       0.704608        1.59932
  29792.266       0.703292        1.59856
  29797.445       0.70287        1.59748
  29801.936       0.702345        1.59698
  29806.860       0.702292        1.59561
  29811.552       0.701676        1.59457
  29816.245       0.701765        1.59381
  29821.372       0.701255        1.5925
  29826.079       0.700959        1.59185
  29831.143       0.700633        1.59041
  29836.021       0.699973        1.58916
  29840.681       0.69909        1.58834
  29845.949       0.700162        1.58666
  29850.643       0.698324        1.58525
  29855.818       0.697653        1.5835
  29860.826       0.696402        1.58278
  29865.677       0.695583        1.58142
  29870.888       0.694751        1.58064
  29875.702       0.693437        1.57873
  29880.722       0.692466        1.57737
  29885.948       0.69121        1.57691
  29890.976       0.690115        1.57589
  29896.231       0.688933        1.57456
  29901.432       0.689135        1.58071
  29906.210       0.68801        1.573
  29911.583       0.686954        1.57202
  29916.600       0.68615        1.57107
  29921.848       0.685464        1.57008
  29927.345       0.684688        1.5689
  29932.341       0.683944        1.56805
  29937.631       0.683158        1.56679
  29943.133       0.682573        1.56576
  29948.130       0.682055        1.56501
  29953.718       0.681627        1.56412
  29959.283       0.681258        1.56299
  29964.290       0.680124        1.56229
  29969.817       0.67929        1.56195
  29975.177       0.678361        1.56121
  29980.529       0.67803        1.55973
  29986.175       0.680774        1.56021
  29991.659       0.676553        1.55716
  29997.032       0.675432        1.55617
  30002.577       0.675215        1.5548
  30008.078       0.673881        1.55329
  30013.271       0.673054        1.55362
  30019.074       0.6722        1.55231
  30024.741       0.671527        1.55128
  30030.100       0.670243        1.54972
  30035.780       0.669335        1.54858
  30041.515       0.668495        1.5478
  30046.875       0.667908        1.54657
  30052.810       0.666064        1.54655
  30058.665       0.665535        1.54513
  30064.263       0.66442        1.54355
  30070.040       0.665382        1.54357
  30075.845       0.663019        1.54167
  30081.501       0.662344        1.54047
  30087.440       0.661939        1.53944
  30093.474       0.661253        1.53896
  30099.329       0.660567        1.53729
  30104.870       0.659539        1.53629
  30110.891       0.659996        1.53708
  30116.861       0.658444        1.5332
  30122.746       0.657814        1.53255
  30128.665       0.657036        1.53181
  30134.778       0.656082        1.53086
  30140.712       0.655291        1.53012
  30146.435       0.65443        1.52797
  30152.539       0.653191        1.52745
  30158.735       0.652745        1.52617
  30164.719       0.651471        1.52462
  30170.483       0.650222        1.5238
  30176.712       0.649984        1.52205
  30182.839       0.649157        1.52126