File: root/data/SnO2_111.xdi
# XDI/1.0 Demeter/0.9.26
# Beamline.name: BM08-LISA
# Column.1: energy eV
# Column.2: mutrans
# Column.3: murefer
# Element.edge: K
# Element.symbol: Sn
# Facility.name: ESRF
# Facility.xray_source: Bending magnet
# Mono.d_spacing: 3.134692
# Mono.name: Si(111)
# Mono.notes: LNT cooled
# Sample.formula: SnO2
# Sample.name: Tin(IV) oxide, stannic oxide
# Sample.reference: Sn metal foil
# Scan.start_time: 2023-09-22T12:01:51
# ///
# room temperature
#------------------------
#  energy  mutrans  murefer
  29000.486       0.43797       0.152025
  29004.078       0.438287       0.151922
  29008.616       0.438407       0.152142
  29013.636       0.438362       0.152202
  29018.121       0.438483       0.152356
  29022.839       0.438737       0.152375
  29028.124       0.43884       0.152781
  29032.809       0.438996       0.152919
  29037.689       0.438936       0.153141
  29043.110       0.439284       0.153234
  29047.873       0.43924       0.153642
  29052.499       0.439511       0.153919
  29057.888       0.439543       0.154348
  29062.572       0.439661       0.15475
  29067.352       0.439953       0.155067
  29072.700       0.440031       0.155717
  29077.370       0.440501       0.15617
  29082.210       0.440746       0.15689
  29087.312       0.441105       0.157559
  29092.034       0.441392       0.158419
  29096.972       0.441343       0.15951
  29102.499       0.442493       0.160633
  29107.347       0.443142       0.162013
  29112.309       0.443711       0.163422
  29117.450       0.444565       0.16502
  29122.172       0.445457       0.166918
  29127.008       0.446173       0.169198
  29132.406       0.447458       0.171771
  29137.124       0.448767       0.175062
  29141.722       0.450755       0.17863
  29147.210       0.452847       0.183322
  29152.017       0.455549       0.189273
  29157.031       0.459243       0.197276
  29162.282       0.463692       0.20711
  29167.112       0.4701       0.221477
  29172.104       0.479141       0.242717
  29177.603       0.493161       0.276886
  29182.064       0.514002       0.33329
  29182.608       0.517652       0.343138
  29183.142       0.521367       0.354135
  29183.451       0.52368       0.360878
  29183.995       0.527632       0.372425
  29184.557       0.532006       0.385865
  29184.876       0.53504       0.394579
  29185.439       0.539865       0.408948
  29186.039       0.545527       0.426868
  29186.386       0.54883       0.438076
  29186.976       0.554645       0.45725
  29187.614       0.561439       0.480174
  29188.261       0.569192       0.506378
  29188.617       0.573908       0.523209
  29189.245       0.582249       0.552346
  29189.883       0.59172       0.586675
  29190.240       0.598036       0.610119
  29190.849       0.608136       0.648303
  29191.487       0.621144       0.697655
  29191.815       0.629339       0.729175
  29192.387       0.643227       0.781847
  29192.988       0.660418       0.846863
  29193.316       0.671375       0.890077
  29193.851       0.690085       0.960253
  29194.423       0.713063        1.04229
  29194.723       0.727555        1.09405
  29195.248       0.753699        1.17817
  29195.793       0.785112        1.27628
  29196.111       0.806245        1.33744
  29196.618       0.840278        1.42818
  29197.153       0.881224        1.5228
  29197.444       0.906861        1.57792
  29197.969       0.95197        1.66022
  29198.542        1.00521        1.7398
  29198.870        1.04079        1.78491
  29199.405        1.09447        1.83794
  29199.977        1.15506        1.88307
  29200.296        1.19125        1.90297
  29200.888        1.24955        1.92385
  29201.517        1.31184        1.93257
  29201.864        1.34758        1.93102
  29202.493        1.40093        1.92281
  29203.112        1.44576        1.90635
  29203.478        1.47093        1.89323
  29204.107        1.50309        1.87079
  29204.792        1.52896        1.84416
  29205.177        1.53987        1.82732
  29205.797        1.54778        1.80553
  29206.417        1.54772        1.78353
  29206.755        1.54387        1.77239
  29207.346        1.532        1.75682
  29207.947        1.51396        1.74297
  29208.285        1.49979        1.73561
  29208.867        1.47549        1.72621
  29209.421        1.44949        1.71889
  29209.741        1.4332        1.71506
  29210.257        1.40788        1.71014
  29210.821        1.38047        1.70608
  29211.140        1.36481        1.70365
  29211.694        1.34164        1.70145
  29212.229        1.3185        1.69905
  29212.521        1.30653        1.69849
  29213.065        1.28831        1.69746
  29213.629        1.27119        1.69646
  29213.967        1.26174        1.69631
  29214.521        1.24799        1.69689
  29215.141        1.23491        1.69748
  29215.470        1.22781        1.69828
  29216.053        1.21815        1.69963
  29216.701        1.20776        1.70188
  29217.058        1.20211        1.70309
  29217.734        1.19356        1.70489
  29218.383        1.18577        1.70749
  29218.740        1.18156        1.70878
  29219.398        1.17509        1.71045
  29220.065        1.16852        1.712
  29220.450        1.1645        1.7133
  29221.080        1.15914        1.71375
  29221.709        1.15309        1.71352
  29222.057        1.14962        1.71359
  29222.649        1.14417        1.71252
  29223.260        1.13803        1.71099
  29223.608        1.13406        1.7096
  29224.153        1.12741        1.70755
  29224.717        1.12015        1.70407
  29225.028        1.11539        1.70154
  29225.582        1.10795        1.69789
  29226.127        1.09994        1.6934
  29226.438        1.0946        1.69029
  29226.974        1.08725        1.6858
  29227.519        1.08023        1.68033
  29228.356        1.0713        1.67292
  29229.522        1.06309        1.66458
  29230.725        1.05993        1.65902
  29231.967        1.06099        1.65839
  29232.945        1.06408        1.66003
  29234.281        1.06986        1.66637
  29235.607        1.0764        1.67562
  29236.858        1.08372        1.6864
  29238.063        1.09097        1.69703
  29239.474        1.10146        1.7104
  29240.575        1.1113        1.72039
  29241.648        1.12177        1.72934
  29242.712        1.13355        1.73762
  29244.105        1.14974        1.74623
  29245.244        1.1626        1.75079
  29246.750        1.17842        1.75346
  29248.341        1.1923        1.75142
  29249.640        1.20175        1.74688
  29251.223        1.21048        1.7381
  29252.748        1.21629        1.72722
  29254.189        1.2203        1.71532
  29255.574        1.22246        1.7039
  29256.902        1.22505        1.69309
  29258.259        1.22675        1.6844
  29259.654        1.22825        1.67796
  29261.143        1.22911        1.67409
  29262.698        1.22971        1.67322
  29264.328        1.22926        1.67469
  29266.298        1.22818        1.6788
  29267.835        1.2265        1.68351
  29269.570        1.22315        1.69055
  29270.956        1.21903        1.6969
  29272.597        1.21233        1.70553
  29274.286        1.20417        1.71422
  29275.757        1.19662        1.7215
  29277.682        1.18703        1.73011
  29279.673        1.17827        1.73642
  29281.635        1.1703        1.74018
  29283.476        1.1641        1.73977
  29285.241        1.15911        1.73586
  29286.893        1.15549        1.72993
  29288.564        1.15298        1.7223
  29290.292        1.15076        1.71513
  29292.473        1.14838        1.70747
  29294.466        1.14615        1.70226
  29296.422        1.14465        1.69841
  29298.557        1.1421        1.69611
  29300.541        1.14025        1.69492
  29302.157        1.13988        1.69561
  29304.066        1.14104        1.69763
  29306.089        1.14451        1.70029
  29307.932        1.14917        1.70302
  29310.201        1.15571        1.70659
  29312.433        1.16279        1.71107
  29314.495        1.16951        1.71434
  29316.453        1.17526        1.71766
  29318.336        1.17969        1.72024
  29320.313        1.18304        1.7215
  29322.745        1.18567        1.7222
  29325.026        1.18739        1.72235
  29327.298        1.18894        1.7215
  29329.684        1.18992        1.72043
  29331.653        1.19037        1.71924
  29333.860        1.19043        1.71707
  29335.877        1.19018        1.71476
  29338.407        1.19008        1.71263
  29341.069        1.18972        1.71081
  29343.618        1.19034        1.7093
  29345.646        1.18978        1.70829
  29347.874        1.18961        1.70795
  29350.112        1.19038        1.70725
  29352.511        1.19092        1.70715
  29355.147        1.19136        1.70756
  29358.031        1.1904        1.70737
  29360.346        1.18873        1.7079
  29362.528        1.18621        1.70808
  29364.977        1.18221        1.70931
  29367.312        1.17867        1.70936
  29369.856        1.17477        1.71003
  29372.780        1.17056        1.71035
  29375.411        1.16693        1.71038
  29377.605        1.16411        1.71015
  29380.085        1.16139        1.70964
  29382.745        1.15957        1.70856
  29385.349        1.15883        1.70665
  29388.258        1.15879        1.70485
  29390.910        1.15965        1.70313
  29393.411        1.16085        1.70137
  29395.960        1.16234        1.69935
  29399.051        1.16375        1.69723
  29402.106        1.16463        1.69572
  29404.951        1.16506        1.69464
  29407.530        1.16521        1.69325
  29410.310        1.16561        1.69222
  29412.976        1.16618        1.69192
  29416.262        1.16676        1.69138
  29419.138        1.1673        1.69144
  29422.006        1.16735        1.69161
  29424.703        1.16724        1.69214
  29427.247        1.16709        1.6916
  29430.345        1.16634        1.6917
  29433.587        1.16573        1.69176
  29436.524        1.16617        1.69105
  29439.243        1.16602        1.6907
  29442.029        1.16649        1.68982
  29445.130        1.16758        1.68833
  29448.403        1.16843        1.687
  29451.745        1.1689        1.68507
  29454.533        1.1689        1.68319
  29457.388        1.16893        1.6818
  29460.875        1.16919        1.67963
  29464.219        1.16895        1.67781
  29467.545        1.16814        1.67548
  29470.269        1.16666        1.67411
  29473.443        1.1646        1.67265
  29476.991        1.16154        1.67132
  29480.157        1.15849        1.67077
  29483.304        1.15536        1.66974
  29486.318        1.15242        1.66861
  29489.467        1.15028        1.66834
  29493.028        1.14971        1.66747
  29496.418        1.14921        1.66723
  29499.483        1.14895        1.66688
  29502.798        1.15022        1.6666
  29506.180        1.15076        1.66638
  29509.822        1.1507        1.66587
  29513.436        1.15012        1.66496
  29516.504        1.14917        1.66385
  29519.755        1.14855        1.66282
  29523.785        1.14789        1.66201
  29527.604        1.14742        1.66001
  29530.704        1.14747        1.65863
  29534.150        1.14769        1.65697
  29537.981        1.14742        1.65552
  29541.814        1.14681        1.6535
  29545.205        1.14591        1.65206
  29548.501        1.14489        1.65019
  29552.096        1.14446        1.64857
  29556.009        1.14443        1.64727
  29559.528        1.14521        1.6462
  29562.837        1.14645        1.64486
  29566.387        1.14755        1.64414
  29570.689        1.14901        1.64299
  29574.376        1.14995        1.64249
  29577.746        1.15031        1.64176
  29581.637        1.15017        1.64125
  29585.683        1.14862        1.64082
  29589.768        1.1463        1.63978
  29593.421        1.14388        1.63904
  29597.326        1.14168        1.63826
  29601.289        1.13979        1.63738
  29605.235        1.13784        1.63649
  29608.834        1.13635        1.63597
  29612.607        1.13517        1.63453
  29616.884        1.13454        1.6331
  29620.823        1.13473        1.63211
  29624.426        1.13497        1.63053
  29628.658        1.13512        1.62957
  29632.987        1.13493        1.62818
  29636.960        1.13468        1.62646
  29640.645        1.13425        1.62543
  29645.103        1.13406        1.62374
  29649.486        1.1338        1.62232
  29653.618        1.13396        1.62121
  29657.655        1.13371        1.62042
  29661.848        1.1338        1.61953
  29666.313        1.13368        1.61848
  29670.266        1.13286        1.61736
  29674.395        1.13132        1.6171
  29678.709        1.12951        1.61581
  29683.024        1.12711        1.61517
  29686.962        1.12538        1.61455
  29691.658        1.12421        1.61358
  29696.365        1.12325        1.6129
  29700.491        1.12292        1.61207
  29704.657        1.12333        1.61105
  29709.436        1.12454        1.60998
  29714.178        1.12617        1.60862
  29718.193        1.12701        1.60782
  29722.918        1.12809        1.60661
  29727.538        1.12816        1.60572
  29731.858        1.12827        1.60513
  29735.886        1.12827        1.60414
  29740.851        1.1277        1.60303
  29745.467        1.12712        1.60192
  29749.733        1.1264        1.60095
  29754.244        1.12498        1.59969
  29759.264        1.12306        1.59876
  29763.681        1.12181        1.59762
  29768.342        1.12        1.59686
  29773.845        1.11831        1.59566
  29778.305        1.11701        1.59513
  29782.766        1.11616        1.59422
  29787.795        1.11556        1.59334
  29792.416        1.11539        1.59289
  29796.950        1.11533        1.59184
  29801.779        1.11533        1.59113
  29806.941        1.11542        1.59029
  29811.245        1.11588        1.5898
  29816.284        1.11628        1.5889
  29821.687        1.1167        1.58793
  29826.132        1.11683        1.58695
  29831.166        1.11665        1.58588
  29836.682        1.11598        1.58546
  29841.425        1.11519        1.58421
  29846.259        1.11407        1.58342
  29851.643        1.11294        1.58219
  29856.381        1.11191        1.58095
  29861.043        1.11087        1.58008
  29866.413        1.11003        1.579
  29871.303        1.10973        1.57809
  29875.960        1.10949        1.57708
  29881.699        1.10956        1.57602
  29886.771        1.10964        1.57535
  29891.816        1.10969        1.57439
  29897.305        1.10942        1.57351
  29902.688        1.10888        1.57276
  29907.374        1.10832        1.57194
  29913.027        1.10783        1.57113
  29918.297        1.10722        1.57018
  29922.880        1.1069        1.56959
  29928.489        1.10696        1.56825
  29933.844        1.10683        1.5674
  29938.815        1.1064        1.56669
  29944.589        1.10557        1.56577
  29950.028        1.10463        1.56448
  29955.173        1.10357        1.56368
  29961.091        1.10272        1.56272
  29966.428        1.10175        1.56151
  29971.866        1.10102        1.56087
  29977.651        1.10053        1.55954
  29982.786        1.09997        1.5591
  29988.210        1.0998        1.55849
  29993.982        1.09932        1.55756
  29999.361        1.09803        1.55681
  30004.662        1.09876        1.55585
  30010.857        1.09861        1.55502
  30016.261        1.0982        1.55407
  30021.886        1.09769        1.55327
  30027.949        1.09721        1.55215
  30033.240        1.09673        1.55129
  30039.209        1.09606        1.55037
  30044.862        1.09564        1.5497
  30050.099        1.0952        1.54906
  30056.164        1.09472        1.54762
  30061.694        1.09441        1.5471
  30067.116        1.0943        1.54602
  30073.357        1.09398        1.54521
  30079.153        1.0935        1.54408
  30085.010        1.09303        1.54346
  30091.129        1.09259        1.54226
  30096.781        1.09203        1.54122
  30102.845        1.09158        1.5404
  30108.851        1.0909        1.5396
  30114.151        1.09083        1.53812
  30120.611        1.09035        1.53752
  30126.395        1.0898        1.5369
  30132.071        1.0893        1.53574
  30138.639        1.08857        1.53495
  30144.399        1.08772        1.53388
  30150.913        1.087        1.53285
  30157.058        1.08641        1.5317
  30162.826        1.08564        1.53112
  30169.337        1.08515        1.53029