File: root/data/SnO_311.xdi
# XDI/1.0 Demeter/0.9.26
# Beamline.name: BM08-LISA
# Column.1: energy eV
# Column.2: mutrans
# Column.3: murefer
# Element.edge: K
# Element.symbol: Sn
# Facility.name: ESRF
# Facility.xray_source: Bending magnet
# Mono.d_spacing: 1.637039
# Mono.name: Si(311)
# Mono.notes: LNT cooled
# Sample.formula: SnO
# Sample.name: Tin(II) oxide, Stannous oxide
# Sample.reference: Sn metal foil
# Scan.start_time: 2023-10-01T16:47:45
# ///
# room temperature
#------------------------
#  energy  mutrans  murefer
  28853.846      -0.514601       0.0661779
  28858.335      -0.514951       0.0659445
  28863.140      -0.515134       0.0661036
  28868.065      -0.515145       0.0658016
  28872.783      -0.515389       0.0657214
  28877.983      -0.515604       0.0655837
  28883.071      -0.515554       0.0653155
  28887.917      -0.515759       0.0650155
  28893.023      -0.515807       0.0651837
  28897.868      -0.515955       0.0650018
  28902.672      -0.515797       0.0651
  28907.878      -0.516215       0.0650578
  28912.843      -0.516368       0.0647465
  28917.771      -0.516552       0.0645965
  28922.730      -0.516809       0.0646124
  28927.413      -0.516783       0.0642832
  28932.375      -0.51695       0.0639826
  28937.554      -0.517011       0.0639169
  28942.423      -0.517153       0.0635012
  28947.419      -0.517091       0.0633627
  28952.484      -0.517125       0.0632203
  28957.167      -0.517285       0.0632728
  28962.249      -0.51731       0.0631267
  28967.132      -0.517441       0.0630833
  28972.026      -0.517557       0.0629529
  28977.268      -0.517551       0.0632189
  28982.180      -0.517709       0.0632148
  28986.800      -0.51787       0.0629162
  28991.951      -0.517802       0.0626995
  28996.834      -0.518038       0.0628869
  29001.744      -0.518191       0.0628122
  29007.048      -0.518159       0.0628796
  29011.846      -0.519772       0.0632518
  29016.659      -0.518132       0.0631289
  29021.743      -0.51838       0.0633973
  29026.367      -0.518447       0.063691
  29031.594      -0.519175       0.0640226
  29036.761      -0.519149       0.0643765
  29041.371      -0.519033       0.0642923
  29046.497      -0.519095       0.0646003
  29051.240      -0.518992       0.0648224
  29056.120      -0.518931       0.0651232
  29061.271      -0.519134       0.0656022
  29066.250      -0.518747       0.0655694
  29071.072      -0.518872       0.065963
  29076.185      -0.518563       0.0665732
  29080.716      -0.518396       0.0668062
  29085.837      -0.518486       0.0677126
  29090.898      -0.518009       0.068095
  29095.791      -0.517796       0.0689687
  29100.840      -0.517618       0.0696992
  29105.818      -0.517475       0.070827
  29110.436      -0.516944       0.0720557
  29115.500      -0.516677       0.0732439
  29120.459      -0.516353       0.074792
  29125.386      -0.515434       0.0767052
  29130.689      -0.514666       0.0786288
  29135.338      -0.513631       0.081119
  29140.231      -0.512418       0.0842379
  29145.413      -0.510047       0.0879186
  29150.145      -0.508522       0.0922343
  29155.310      -0.506176       0.0978354
  29160.395      -0.502735       0.10493
  29165.278      -0.498689       0.114154
  29170.356      -0.493077       0.127145
  29175.237      -0.485001       0.145578
  29180.275      -0.472061       0.175762
  29185.569      -0.450739       0.227962
  29186.021      -0.447759       0.234859
  29186.459      -0.444701       0.24223
  29187.048      -0.440461       0.253136
  29187.486      -0.437164       0.262094
  29187.929      -0.433303       0.271124
  29188.386      -0.429868       0.281202
  29188.849      -0.425739       0.291699
  29189.506      -0.419591       0.307318
  29190.002      -0.415012       0.319675
  29190.513      -0.409831       0.333773
  29191.039      -0.404069       0.348846
  29191.735      -0.395825       0.372123
  29192.231      -0.388403       0.39158
  29192.699      -0.381127       0.412247
  29193.142      -0.37294       0.435097
  29193.590      -0.363652       0.461074
  29194.159      -0.35066       0.499151
  29194.573      -0.339943       0.530973
  29194.987      -0.328173       0.565869
  29195.406      -0.315458       0.605239
  29195.995      -0.295766       0.665386
  29196.453      -0.278995       0.716898
  29196.930      -0.260711       0.774494
  29197.417      -0.240601       0.837873
  29197.914      -0.219375       0.905963
  29198.615      -0.1861        1.01092
  29199.131      -0.159213        1.0957
  29199.628      -0.130511        1.18577
  29200.105      -0.100252        1.27862
  29200.714      -0.0573498    1.4061
  29201.153      -0.0253662    1.49985
  29201.581       0.00785001    1.59036
  29202.010       0.0388628    1.6758
  29202.434       0.0681429    1.75159
  29203.014       0.103032        1.83647
  29203.437       0.12166        1.8838
  29203.890       0.142414        1.92212
  29204.358       0.156259        1.94705
  29204.836       0.165565        1.95989
  29205.503       0.173575        1.9608
  29206.020       0.174756        1.95124
  29206.541       0.174117        1.9355
  29207.053       0.171454        1.91435
  29207.720       0.162987        1.88143
  29208.193       0.154712        1.85504
  29208.651       0.145091        1.82944
  29209.100       0.13496        1.80439
  29209.538       0.123841        1.78031
  29210.113       0.107912        1.75291
  29210.537       0.0971902    1.73628
  29210.971       0.0865429    1.72082
  29211.429       0.077412    1.70778
  29212.058       0.0663149    1.6928
  29212.541       0.0596899    1.68428
  29213.048       0.0529644    1.67642
  29213.570       0.0488467    1.67058
  29214.106       0.0436868    1.66527
  29214.823       0.0391733    1.65933
  29215.325       0.0368273    1.65625
  29215.817       0.0338257    1.65366
  29216.285       0.0309666    1.65144
  29216.909       0.0267308    1.64911
  29217.353       0.0240057    1.64789
  29217.787       0.0201206    1.64692
  29218.231       0.0160859    1.64665
  29218.670       0.0121634    1.64713
  29219.280       0.00651869    1.64902
  29219.748       0.00131093    1.64932
  29220.226      -0.0030669    1.6498
  29220.723      -0.00818458    1.65219
  29221.231      -0.012649    1.6551
  29221.943      -0.0187243    1.65887
  29222.465      -0.0228925    1.66119
  29222.962      -0.0265298    1.66395
  29223.465      -0.0301983    1.66611
  29224.094      -0.0345435    1.66863
  29224.538      -0.0380708    1.66985
  29224.972      -0.0397087    1.67123
  29225.397      -0.0418241    1.67144
  29225.817      -0.0437453    1.67125
  29226.383      -0.0455455    1.67117
  29226.807      -0.0465292    1.67027
  29227.256      -0.0470273    1.66867
  29227.705      -0.0470623    1.66736
  29228.188      -0.0479613    1.66534
  29228.857      -0.0464402    1.66179
  29229.355      -0.0449108    1.65867
  29229.877      -0.0445697    1.65511
  29230.384      -0.0418496    1.65132
  29231.048      -0.0387821    1.64544
  29231.971      -0.0336753    1.63637
  29233.138      -0.0244887    1.62412
  29234.133      -0.016577    1.61455
  29235.164      -0.0091908    1.60869
  29236.277      -0.00148144    1.6071
  29237.649       0.00399689    1.61108
  29238.992       0.00786832    1.61986
  29240.071       0.00836498    1.63066
  29241.239       0.00780726    1.64369
  29242.406       0.00609294    1.65624
  29243.657       0.0050783    1.66807
  29245.225       0.0044507    1.68069
  29246.618       0.00547193    1.69067
  29248.035       0.00962351    1.70159
  29249.218       0.0147271    1.7097
  29250.562       0.0214204    1.71552
  29252.023       0.0292608    1.71686
  29253.597       0.0350268    1.71355
  29255.093       0.040156    1.70534
  29256.428       0.0425844    1.69486
  29257.851       0.0414973    1.68137
  29259.211       0.0392167    1.66829
  29260.883       0.0344871    1.65511
  29262.395       0.0291824    1.64435
  29263.892       0.0226772    1.63496
  29265.311       0.0170155    1.62831
  29266.803       0.0121592    1.62521
  29268.638       0.00675625    1.62537
  29270.322       0.00140377    1.62828
  29271.854      -0.00248891    1.63305
  29273.454      -0.00637906    1.63948
  29275.183      -0.0101751    1.64711
  29276.955      -0.0120048    1.65591
  29278.816      -0.0125311    1.667
  29280.471      -0.0110991    1.67781
  29282.303      -0.00829247    1.69033
  29284.179      -0.0055034    1.69802
  29286.066      -0.00351016    1.70202
  29287.893      -0.00131632    1.70196
  29289.623       0.000632205    1.6972
  29291.373       0.00238074    1.69044
  29293.432       0.00385364    1.68182
  29295.265       0.00469734    1.67376
  29296.972       0.0052421    1.66676
  29299.012       0.0065728    1.6606
  29301.076       0.0062751    1.65619
  29303.122       0.00638616    1.6532
  29304.868       0.00614237    1.65286
  29306.944       0.00559394    1.65316
  29309.250       0.0065663    1.65456
  29311.277       0.00823906    1.65694
  29313.211       0.0102762    1.66071
  29315.371       0.0119938    1.66509
  29317.585       0.0128982    1.66887
  29319.673       0.0153615    1.67321
  29321.563       0.0163625    1.67586
  29323.892       0.0164924    1.67816
  29326.137       0.0160605    1.67933
  29328.127       0.0152826    1.67977
  29330.265       0.0143028    1.67959
  29332.668       0.0125324    1.6801
  29334.816       0.0117193    1.67887
  29337.039       0.00900422    1.67714
  29339.399       0.00811989    1.67469
  29341.917       0.00644288    1.67252
  29344.150       0.0033834    1.67032
  29346.581       0.00364497    1.6682
  29349.154       0.00283148    1.66627
  29351.369       0.0016927    1.66585
  29353.638       0.00103715    1.66505
  29356.193       0.00137573    1.66451
  29358.640       0.00148129    1.66438
  29360.989       0.00152995    1.66438
  29363.540       0.00223605    1.66481
  29366.097       0.00174139    1.66604
  29368.467       0.00209041    1.6665
  29371.217       0.00205369    1.66748
  29373.864       0.00261954    1.66813
  29376.442       0.00218539    1.66853
  29379.203       0.00266861    1.66959
  29381.970       0.00296204    1.66966
  29384.318       0.00256748    1.66862
  29387.184       0.00246041    1.66762
  29389.864       0.00254822    1.66556
  29392.361       0.00233108    1.66407
  29395.249       0.00265804    1.66198
  29397.944       0.00232317    1.6599
  29400.670       0.0023946    1.65813
  29403.663       0.00189133    1.65509
  29406.479       0.00236312    1.6533
  29409.359       0.00279251    1.65181
  29412.483       0.00251598    1.65093
  29415.167       0.00205213    1.64974
  29418.093       0.00303943    1.64915
  29421.041       0.00244649    1.64867
  29423.672       0.00206874    1.64806
  29426.862       0.00137052    1.64801
  29429.698       1.64198e-05    1.64891
  29432.593       0.000118305    1.64895
  29435.929      -0.000608606    1.64977
  29438.652      -0.00222592    1.64903
  29441.950      -0.00223573    1.64874
  29445.050      -0.00324379    1.64841
  29447.839      -0.00426046    1.64697
  29451.030      -0.00429054    1.64553
  29454.024      -0.00507492    1.64355
  29456.939      -0.00588247    1.64123
  29460.285      -0.00679302    1.63925
  29463.236      -0.00690199    1.63702
  29466.659      -0.00732657    1.63512
  29469.809      -0.00701882    1.63274
  29472.995      -0.0072372    1.63059
  29476.395      -0.00645398    1.62939
  29479.518      -0.00678412    1.62675
  29482.910      -0.00649291    1.62521
  29486.054      -0.00634065    1.62389
  29489.407      -0.00597477    1.62298
  29492.841      -0.00630236    1.62238
  29496.012      -0.00632856    1.62178
  29499.651      -0.00716878    1.62177
  29502.823      -0.00737484    1.62152
  29506.399      -0.00770228    1.62185
  29509.792      -0.00846574    1.62058
  29513.111      -0.00940358    1.62042
  29516.680      -0.00945628    1.62004
  29519.961      -0.0102506    1.61924
  29523.696      -0.0107404    1.6182
  29526.973      -0.0103023    1.61693
  29530.769      -0.011075    1.61503
  29534.168      -0.011667    1.61357
  29538.051      -0.011761    1.61121
  29541.516      -0.0121084    1.60954
  29545.166      -0.0124517    1.60751
  29548.703      -0.0119686    1.60628
  29552.140      -0.0117928    1.60411
  29555.978      -0.0116394    1.60181
  29559.383      -0.0121936    1.60025
  29563.337      -0.0125701    1.5989
  29566.953      -0.013431    1.59745
  29570.880      -0.0146009    1.59676
  29574.467      -0.0152797    1.59553
  29578.246      -0.0162595    1.5947
  29581.851      -0.0166551    1.59432
  29585.726      -0.0180742    1.59348
  29589.463      -0.0177874    1.59313
  29593.330      -0.0188323    1.5923
  29597.229      -0.0189771    1.59085
  29601.088      -0.0194251    1.59055
  29605.139      -0.0199904    1.58936
  29608.866      -0.0197568    1.58885
  29612.884      -0.0197104    1.58787
  29616.707      -0.0208727    1.58703
  29620.793      -0.0196092    1.58524
  29624.688      -0.0191848    1.58392
  29628.856      -0.0193397    1.58235
  29632.799      -0.0194932    1.58068
  29636.919      -0.0198891    1.57916
  29640.960      -0.0200713    1.57772
  29645.007      -0.0211231    1.57666
  29649.055      -0.0215198    1.57483
  29653.275      -0.0220994    1.57315
  29657.456      -0.0229077    1.57169
  29661.678      -0.0235751    1.57036
  29666.002      -0.0240061    1.56917
  29670.091      -0.0247337    1.56841
  29674.367      -0.02506    1.56713
  29678.509      -0.0256747    1.56659
  29682.883      -0.0258534    1.56562
  29687.057      -0.0267403    1.56551
  29691.747      -0.0265678    1.56399
  29695.782      -0.02691    1.56314
  29700.454      -0.0267013    1.56203
  29704.800      -0.0262743    1.56202
  29709.308      -0.0277343    1.56059
  29713.586      -0.0272414    1.55946
  29718.157      -0.0276386    1.55819
  29722.710      -0.0277153    1.55678
  29727.168      -0.0290406    1.55662
  29732.032      -0.0298491    1.55505
  29736.179      -0.0298624    1.55371
  29740.940      -0.030317    1.55273
  29745.267      -0.0311283    1.55155
  29750.081      -0.0316902    1.55011
  29754.715      -0.0315799    1.54917
  29759.233      -0.0322946    1.54838
  29764.254      -0.0325131    1.54702
  29768.735      -0.0324647    1.54595
  29773.466      -0.0334431    1.54491
  29777.964      -0.0336871    1.54401
  29782.723      -0.0336772    1.54348
  29787.549      -0.0329788    1.54264
  29792.134      -0.0332757    1.54201
  29797.303      -0.0336744    1.54102
  29801.774      -0.0338232    1.54007
  29806.723      -0.0339519    1.53932
  29811.384      -0.0343701    1.53861
  29816.108      -0.0348418    1.53724
  29821.235      -0.0367493    1.53611
  29825.937      -0.0357534    1.5359
  29831.011      -0.0365935    1.53439
  29835.863      -0.0367684    1.53371
  29840.549      -0.0376505    1.53251
  29845.771      -0.0376117    1.53087
  29850.409      -0.0384039    1.52978
  29855.624      -0.0383075    1.52843
  29860.581      -0.0390332    1.52719
  29865.448      -0.0390414    1.5266
  29870.674      -0.0392971    1.52532
  29875.478      -0.0396837    1.52434
  29880.554      -0.0399244    1.52333
  29885.754      -0.0405942    1.52247
  29890.767      -0.0409337    1.52132
  29896.042      -0.0407071    1.52042
  29901.212      -0.0399262    1.52314
  29906.041      -0.0411073    1.51904
  29911.419      -0.0416564    1.51767
  29916.416      -0.0422599    1.51656
  29921.690      -0.0429334    1.51555
  29927.160      -0.0429784    1.51511
  29932.147      -0.0430413    1.5142
  29937.462      -0.0437045    1.51303
  29942.944      -0.0441285    1.51242
  29947.940      -0.0447284    1.51144
  29953.559      -0.0447433    1.51037
  29959.103      -0.0453998    1.50942
  29964.136      -0.0456783    1.50862
  29969.684      -0.0462803    1.50817
  29975.033      -0.0463848    1.50735
  29980.390      -0.0472776    1.50623
  29986.031      -0.0459601    1.50682
  29991.474      -0.0474887    1.50435
  29996.868      -0.0476762    1.50326
  30002.423      -0.0480501    1.50256
  30007.913      -0.0483035    1.50107
  30013.132      -0.0486842    1.5005
  30018.945      -0.0492547    1.49943
  30024.576      -0.049535    1.49819
  30029.955      -0.0502162    1.49767
  30035.657      -0.0502393    1.49645
  30041.386      -0.0505513    1.49556
  30046.741      -0.051516    1.49432
  30052.686      -0.0526992    1.49345
  30058.515      -0.0524391    1.49258
  30064.103      -0.0525438    1.49137
  30069.911      -0.0524069    1.49092
  30075.726      -0.0534896    1.4894
  30081.367      -0.0536848    1.48828
  30087.310      -0.0542563    1.48738
  30093.355      -0.0545368    1.48611
  30099.174      -0.0546954    1.48556
  30104.736      -0.0550219    1.48448
  30110.782      -0.0550774    1.48385
  30116.742      -0.0559783    1.48214
  30122.606      -0.0563844    1.4813
  30128.546      -0.0562286    1.48042
  30134.669      -0.056825    1.47991
  30140.587      -0.0578246    1.47779
  30146.315      -0.0579458    1.4772
  30152.430      -0.0585116    1.47599
  30158.615      -0.0588918    1.47507
  30164.605      -0.0592016    1.47408
  30170.389      -0.0597773    1.47346
  30176.566      -0.0598072    1.47252
  30182.704      -0.059975    1.47099