File: root/data/SnO_111.xdi
# XDI/1.0 Demeter/0.9.26
# Beamline.name: BM08-LISA
# Column.1: energy eV
# Column.2: mutrans
# Column.3: murefer
# Element.edge: K
# Element.symbol: Sn
# Facility.name: ESRF
# Facility.xray_source: Bending magnet
# Mono.d_spacing: 3.134692
# Mono.name: Si(111)
# Mono.notes: LNT cooled
# Sample.formula: SnO
# Sample.name: Tin(II) oxide, Stannous oxide
# Sample.reference: Sn metal foil
# Scan.start_time: 2023-09-22T10:37:03
# ///
# room temperature
#------------------------
#  energy  mutrans  murefer
  28998.931       0.406419       0.151668
  29002.606       0.406497       0.151574
  29006.930       0.406622       0.151552
  29011.996       0.406381       0.151719
  29016.694       0.406528       0.151813
  29021.226       0.406401       0.151958
  29026.520       0.406388       0.15227
  29031.426       0.40638       0.152458
  29036.140       0.406471       0.152705
  29041.578       0.406489       0.152887
  29046.555       0.406646       0.153074
  29051.022       0.406663       0.153367
  29056.420       0.40683       0.153748
  29061.318       0.406862       0.154252
  29065.938       0.40698       0.154683
  29071.267       0.407291       0.155032
  29076.123       0.407431       0.155566
  29080.795       0.407674       0.156246
  29085.869       0.407795       0.156883
  29090.823       0.408104       0.157863
  29095.602       0.40841       0.158969
  29101.101       0.408657       0.160177
  29106.135       0.409326       0.161226
  29110.966       0.409868       0.162656
  29116.134       0.410421       0.164208
  29121.043       0.4112       0.166032
  29125.757       0.412152       0.168157
  29131.192       0.413223       0.170667
  29136.050       0.414526       0.173845
  29140.488       0.415936       0.177169
  29145.948       0.41774       0.181688
  29150.941       0.42033       0.187294
  29155.806       0.423572       0.194733
  29161.055       0.427645       0.203849
  29166.045       0.433651       0.216788
  29170.914       0.442329       0.236051
  29176.469       0.455924       0.266387
  29181.061       0.477249       0.314985
  29181.595       0.481029       0.323422
  29182.130       0.484964       0.332407
  29182.439       0.48759       0.338145
  29182.954       0.491644       0.348044
  29183.498       0.496696       0.358926
  29183.807       0.499652       0.366138
  29184.342       0.504775       0.377943
  29184.914       0.510777       0.391797
  29185.260       0.514947       0.401564
  29185.832       0.521554       0.417171
  29186.442       0.529491       0.435623
  29187.051       0.537802       0.456125
  29187.398       0.543641       0.468768
  29188.026       0.553142       0.491672
  29188.673       0.565101       0.51981
  29189.039       0.572433       0.53721
  29189.658       0.585165       0.567344
  29190.305       0.600725       0.605196
  29190.662       0.610911       0.628909
  29191.262       0.628291       0.669701
  29191.871       0.649447       0.719693
  29192.218       0.664138       0.753309
  29192.781       0.688437       0.809331
  29193.391       0.719338       0.878528
  29193.691       0.73831       0.920698
  29194.226       0.770876       0.990819
  29194.779       0.810595        1.07494
  29195.098       0.837359        1.12962
  29195.624       0.879721        1.21557
  29196.168       0.930466        1.31587
  29196.449       0.959824        1.37267
  29196.975        1.01026        1.46883
  29197.519        1.06226        1.56488
  29197.819        1.09288        1.62109
  29198.335        1.13748        1.70027
  29198.889        1.18257        1.77713
  29199.208        1.20617        1.81561
  29199.762        1.23827        1.86452
  29200.353        1.26579        1.90179
  29200.700        1.27921        1.91605
  29201.282        1.29265        1.926
  29201.911        1.29961        1.92342
  29202.258        1.30012        1.91797
  29202.906        1.29635        1.90141
  29203.535        1.28826        1.88149
  29203.910        1.28057        1.86666
  29204.539        1.26651        1.84439
  29205.206        1.24877        1.81997
  29205.553        1.23812        1.80674
  29206.191        1.21956        1.78703
  29206.849        1.20087        1.76838
  29207.177        1.18976        1.75853
  29207.759        1.17414        1.74573
  29208.351        1.15897        1.73431
  29208.670        1.15085        1.72837
  29209.224        1.13905        1.72085
  29209.806        1.12829        1.71473
  29210.135        1.12289        1.71066
  29210.670        1.11474        1.70656
  29211.234        1.10649        1.70356
  29211.544        1.10208        1.70163
  29212.079        1.09547        1.69983
  29212.633        1.08863        1.69832
  29212.971        1.08384        1.69711
  29213.526        1.077        1.69672
  29214.108        1.06874        1.69641
  29214.437        1.06428        1.6965
  29215.000        1.05688        1.69729
  29215.630        1.04807        1.69877
  29215.977        1.0429        1.69969
  29216.588        1.03446        1.70139
  29217.246        1.02656        1.70362
  29217.603        1.0221        1.70524
  29218.270        1.01478        1.70735
  29218.947        1.00783        1.7096
  29219.322        1.00412        1.71043
  29219.971       0.99833        1.7122
  29220.647       0.993689        1.71346
  29221.005       0.991086        1.71375
  29221.625       0.987533        1.71418
  29222.264       0.984809        1.7137
  29222.612       0.98377        1.7133
  29223.194       0.982219        1.71197
  29223.805       0.981252        1.70973
  29224.116       0.981308        1.70808
  29224.670       0.982436        1.70543
  29225.234       0.984072        1.70203
  29225.563       0.985167        1.69944
  29226.090       0.988316        1.69526
  29226.663       0.991727        1.69019
  29227.481       0.998761        1.68327
  29228.628        1.0101        1.67341
  29229.776        1.02187        1.66559
  29230.998        1.03343        1.66095
  29231.957        1.04133        1.65979
  29233.265        1.04923        1.66303
  29234.591        1.05473        1.6702
  29235.889        1.05755        1.6792
  29237.141        1.05884        1.68979
  29238.608        1.05704        1.70386
  29239.766        1.05632        1.71375
  29240.829        1.05625        1.72389
  29241.883        1.05802        1.73201
  29243.248        1.0623        1.74226
  29244.359        1.06844        1.74856
  29245.818        1.07832        1.75344
  29247.371        1.08878        1.7539
  29248.652        1.09703        1.75155
  29250.253        1.10543        1.74556
  29251.844        1.11076        1.73573
  29253.342        1.11271        1.72403
  29254.764        1.11034        1.7119
  29256.092        1.105        1.70057
  29257.449        1.09722        1.69042
  29258.806        1.08909        1.68223
  29260.257        1.08001        1.6767
  29261.765        1.07219        1.67404
  29263.367        1.06494        1.67395
  29265.365        1.05656        1.67696
  29266.949        1.04987        1.68099
  29268.759        1.04253        1.68754
  29270.192        1.03814        1.69356
  29271.824        1.03418        1.70125
  29273.493        1.03236        1.71003
  29274.927        1.033        1.71735
  29276.795        1.03533        1.72651
  29278.814        1.03908        1.73475
  29280.758        1.04269        1.73992
  29282.664        1.04597        1.74121
  29284.467        1.04913        1.73916
  29286.156        1.05163        1.7343
  29287.818        1.05316        1.72733
  29289.508        1.05533        1.7198
  29291.614        1.05687        1.71165
  29293.569        1.05845        1.70585
  29295.552        1.05919        1.70151
  29297.754        1.05926        1.69803
  29299.785        1.05896        1.69669
  29301.420        1.05909        1.69664
  29303.310        1.05961        1.69807
  29305.276        1.06103        1.70046
  29307.072        1.06304        1.70325
  29309.313        1.06603        1.70673
  29311.591        1.06893        1.71075
  29313.719        1.07176        1.71411
  29315.706        1.07431        1.71767
  29317.588        1.07526        1.72001
  29319.518        1.07633        1.72214
  29321.874        1.07462        1.72337
  29324.117        1.07374        1.72329
  29326.417        1.07209        1.72278
  29328.888        1.07088        1.72171
  29330.896        1.06866        1.72048
  29333.112        1.06651        1.71864
  29335.091        1.06449        1.71683
  29337.535        1.06204        1.71438
  29340.188        1.06011        1.71229
  29342.803        1.05809        1.71024
  29344.888        1.05695        1.70938
  29347.154        1.05536        1.70856
  29349.353        1.05385        1.70803
  29351.686        1.05387        1.70792
  29354.256        1.05452        1.70793
  29357.205        1.05571        1.70802
  29359.596        1.056        1.70861
  29361.807        1.05661        1.7089
  29364.227        1.05665        1.70955
  29366.514        1.05622        1.70999
  29368.982        1.0571        1.71031
  29371.916        1.05698        1.71118
  29374.632        1.0567        1.71173
  29376.864        1.05734        1.71123
  29379.306        1.05703        1.71059
  29381.947        1.05729        1.7093
  29384.427        1.05718        1.70821
  29387.402        1.05719        1.70641
  29390.112        1.05758        1.7046
  29392.650        1.05735        1.70293
  29395.152        1.05727        1.70107
  29398.186        1.05715        1.69889
  29401.211        1.05671        1.69725
  29404.142        1.05741        1.69574
  29406.778        1.05744        1.69473
  29409.548        1.05786        1.69352
  29412.148        1.05759        1.69305
  29415.376        1.05756        1.69269
  29418.300        1.05674        1.69256
  29421.244        1.05597        1.69223
  29423.940        1.05446        1.69282
  29426.428        1.05448        1.693
  29429.392        1.05313        1.69258
  29432.643        1.05254        1.6928
  29435.656        1.05177        1.69253
  29438.432        1.05081        1.69196
  29441.151        1.04958        1.69095
  29444.166        1.04856        1.68962
  29447.420        1.04683        1.68817
  29450.866        1.04599        1.68645
  29453.692        1.04443        1.68448
  29456.519        1.04431        1.68279
  29459.872        1.04347        1.68094
  29463.244        1.04278        1.67864
  29466.656        1.04323        1.67708
  29469.428        1.04256        1.67558
  29472.525        1.04369        1.67403
  29475.958        1.04439        1.67287
  29479.191        1.04312        1.67165
  29482.414        1.04356        1.67072
  29485.428        1.0444        1.66995
  29488.529        1.04465        1.66941
  29491.985        1.04414        1.66889
  29495.480        1.04428        1.6684
  29498.631        1.0438        1.66819
  29501.916        1.04269        1.66799
  29505.174        1.04109        1.66787
  29508.825        1.04035        1.66708
  29512.563        1.0401        1.66644
  29515.680        1.0391        1.6657
  29518.854        1.03849        1.66409
  29522.777        1.03728        1.66329
  29526.759        1.03761        1.66157
  29529.907        1.03697        1.66022
  29533.305        1.03643        1.65867
  29537.011        1.03605        1.65698
  29540.920        1.03558        1.65531
  29544.398        1.03635        1.65353
  29547.684        1.03694        1.65197
  29551.173        1.03667        1.65057
  29555.095        1.03638        1.64885
  29558.740        1.03564        1.64784
  29562.048        1.03496        1.6468
  29565.512        1.03381        1.64568
  29569.784        1.03289        1.64451
  29573.615        1.03116        1.64346
  29577.043        1.03033        1.64304
  29580.827        1.02932        1.64253
  29584.815        1.02797        1.6418
  29589.016        1.02818        1.6411
  29592.708        1.02681        1.64046
  29596.516        1.02587        1.63931
  29600.421        1.02526        1.63906
  29604.472        1.02577        1.63823
  29608.100        1.02598        1.63687
  29611.806        1.02669        1.63639
  29616.005        1.02657        1.63508
  29620.041        1.027        1.63337
  29623.673        1.02647        1.63234
  29627.788        1.027        1.63082
  29632.108        1.02604        1.63028
  29636.197        1.02625        1.62831
  29639.910        1.02555        1.62657
  29644.242        1.02446        1.62552
  29648.693        1.02312        1.62445
  29652.893        1.02285        1.62301
  29656.910        1.02176        1.62152
  29661.005        1.02143        1.62101
  29665.558        1.01999        1.61995
  29669.569        1.02003        1.61919
  29673.571        1.01923        1.61833
  29677.846        1.01817        1.61766
  29682.296        1.01811        1.61655
  29686.254        1.01792        1.6158
  29690.881        1.01768        1.61528
  29695.617        1.01763        1.61432
  29699.831        1.01683        1.61332
  29703.977        1.01769        1.61257
  29708.659        1.01674        1.61148
  29713.537        1.01666        1.61034
  29717.561        1.01651        1.60937
  29722.169        1.01626        1.60803
  29726.838        1.01548        1.60703
  29731.215        1.01358        1.6063
  29735.195        1.01309        1.60522
  29740.092        1.01283        1.60458
  29744.824        1.01239        1.60313
  29749.090        1.01059        1.60215
  29753.514        1.01136        1.60096
  29758.660        1.01058        1.60002
  29763.105        1.01038        1.59928
  29767.708        1.01037        1.59796
  29773.240        1.01008        1.59752
  29777.788        1.01039        1.59664
  29782.190        1.00918        1.59563
  29787.180        1.00863        1.5946
  29791.888        1.00934        1.59409
  29796.403        1.00835        1.59346
  29801.182        1.00917        1.59281
  29806.413        1.00831        1.59192
  29810.727        1.00799        1.59143
  29815.697        1.00722        1.59035
  29821.187        1.00689        1.58907
  29825.681        1.0064        1.58797
  29830.647        1.00591        1.58706
  29836.202        1.00462        1.58628
  29841.053        1.00436        1.58506
  29845.768        1.0034        1.584
  29851.133        1.00224        1.58308
  29855.950        1.00229        1.58242
  29860.562        1.00233        1.5811
  29865.902        1.001        1.58022
  29870.881        1.00187        1.57906
  29875.528        1.00151        1.57793
  29881.207        1.00155        1.57692
  29886.368        1.00101        1.57628
  29891.383        1.00037        1.5757
  29896.843       0.999801        1.57472
  29902.295       0.999864        1.5738
  29906.961       0.998597        1.57291
  29912.574       0.99837        1.57198
  29917.903       0.998246        1.57134
  29922.476       0.997694        1.57021
  29928.015       0.997221        1.56966
  29933.469       0.995875        1.56849
  29938.401       0.99613        1.56765
  29944.134       0.995599        1.56702
  29949.673       0.994157        1.56623
  29954.788       0.993196        1.5644
  29960.716       0.994816        1.56357
  29966.082       0.993506        1.56259
  29971.470       0.993072        1.56164
  29977.236       0.993454        1.56088
  29982.410       0.992224        1.56021
  29987.765       0.992323        1.55944
  29993.616       0.992325        1.55857
  29999.034       0.989609        1.55792
  30004.226       0.991895        1.55698
  30010.421       0.991079        1.55598
  30015.845       0.990687        1.55478
  30021.380       0.988721        1.5543
  30027.502       0.989875        1.55329
  30032.793       0.987199        1.55258
  30038.682       0.98842        1.55142
  30044.404       0.988001        1.55075
  30049.582       0.987717        1.54981
  30055.587       0.986122        1.54913
  30061.216       0.986542        1.54811
  30066.579       0.986143        1.54735
  30072.850       0.98547        1.54622
  30078.705       0.985424        1.54532
  30084.462       0.985188        1.54456
  30090.630       0.984675        1.54345
  30096.263       0.984199        1.54259
  30102.207       0.983632        1.54162
  30108.332       0.982702        1.54072
  30113.582       0.98291        1.53948
  30120.012       0.982604        1.53886
  30125.886       0.981985        1.53779
  30131.441       0.981143        1.53664
  30138.049       0.980874        1.53595
  30143.839       0.979986        1.53471
  30150.262       0.979724        1.53392
  30156.528       0.978316        1.5328
  30162.205       0.978923        1.53175
  30168.676       0.977092        1.53081