File: root/data/SnO_311_100K.xdi
# XDI/1.0 Demeter/0.9.26
# Beamline.name: BM08-LISA
# Column.1: energy eV
# Column.2: mutrans
# Column.3: murefer
# Element.edge: K
# Element.symbol: Sn
# Facility.name: ESRF
# Facility.xray_source: Bending magnet
# Mono.d_spacing: 1.637039
# Mono.name: Si(311)
# Mono.notes: LNT cooled
# Sample.formula: SnO
# Sample.name: Tin(II) oxide, Stannous oxide
# Sample.reference: Sn metal foil
# Sample.temperature: 100 K
# Scan.start_time: 2023-09-28T18:57:27
# ///
#------------------------
#  energy  mutrans  murefer
  28854.026      -0.559719       0.0614232
  28858.335      -0.559911       0.0611533
  28863.059      -0.560013       0.0607045
  28867.923      -0.560175       0.0603363
  28872.607      -0.560274       0.0601954
  28877.783      -0.560349       0.0601394
  28882.799      -0.560479       0.0597995
  28887.646      -0.560755       0.0597527
  28892.742      -0.560778       0.0595674
  28897.525      -0.560955       0.059474
  28902.362      -0.561059       0.0593636
  28907.554      -0.561177       0.0590497
  28912.466      -0.561351       0.0588957
  28917.465      -0.561412       0.0588281
  28922.410      -0.561673       0.0587872
  28927.059      -0.561691       0.058902
  28932.069      -0.561795       0.0585974
  28937.195      -0.561805       0.0586434
  28942.064      -0.562002       0.0585139
  28947.103      -0.562069       0.0584327
  28952.129      -0.562169       0.058069
  28956.832      -0.562333       0.0580263
  28961.943      -0.562372       0.0581507
  28966.758      -0.562535       0.0579238
  28971.720      -0.562513       0.0576941
  28976.975      -0.562745       0.0578119
  28981.853      -0.562782       0.0577708
  28986.527      -0.562837       0.0577968
  28991.682      -0.563051       0.057193
  28996.527      -0.563148       0.05703
  29001.498      -0.563087       0.0573311
  29006.784      -0.563233       0.0574912
  29011.596      -0.563223       0.057569
  29016.452      -0.563337       0.0578472
  29021.507      -0.563313       0.0580065
  29026.136      -0.56338       0.0586353
  29031.392      -0.5634       0.0589007
  29036.520      -0.563443       0.0591797
  29041.159      -0.56336       0.0596847
  29046.295      -0.563378       0.0600598
  29050.990      -0.563438       0.0603071
  29055.907      -0.563368       0.0607737
  29061.044      -0.563147       0.0611603
  29066.004      -0.563064       0.0612072
  29070.860      -0.562912       0.0615895
  29075.949      -0.562667       0.0619428
  29080.498      -0.562533       0.0621234
  29085.639      -0.562267       0.0625989
  29090.656      -0.561927       0.0628659
  29095.568      -0.561706       0.0635713
  29100.666      -0.561343       0.0643319
  29105.615      -0.560912       0.0653356
  29110.261      -0.560318       0.0664086
  29115.330      -0.559936       0.0677455
  29120.270      -0.559081       0.0696889
  29125.227      -0.558313       0.0716362
  29130.509      -0.557276       0.0736882
  29135.134      -0.556233       0.0757455
  29140.062      -0.554766       0.0782669
  29145.204      -0.553025       0.081886
  29149.926      -0.550869       0.0861531
  29155.111      -0.548114       0.0912548
  29160.167      -0.544485       0.0984366
  29165.069      -0.539748       0.107641
  29170.147      -0.533447       0.119874
  29174.989      -0.524185       0.137466
  29180.057      -0.509636       0.166516
  29185.359      -0.485453       0.215303
  29185.826      -0.48219       0.221978
  29186.279      -0.47877       0.229046
  29186.878      -0.473843       0.239265
  29187.316      -0.469871       0.247498
  29187.758      -0.465804       0.256124
  29188.221      -0.461409       0.265465
  29188.683      -0.456873       0.275198
  29189.335      -0.450185       0.289651
  29189.837      -0.444831       0.301602
  29190.348      -0.438887       0.314157
  29190.873      -0.432756       0.328216
  29191.555      -0.423435       0.348791
  29192.051      -0.41563       0.366242
  29192.524      -0.407612       0.384715
  29192.971      -0.398806       0.405053
  29193.419      -0.388972       0.428052
  29193.994      -0.374613       0.461887
  29194.413      -0.362909       0.490306
  29194.822      -0.34997       0.521543
  29195.240      -0.335974       0.556211
  29195.820      -0.314817       0.609574
  29196.273      -0.296624       0.655304
  29196.735      -0.276996       0.705829
  29197.217      -0.255158       0.761922
  29197.704      -0.231614       0.822668
  29198.396      -0.195478       0.9157
  29198.912      -0.165472       0.99297
  29199.414      -0.133196        1.07512
  29199.891      -0.098634    1.16184
  29200.510      -0.0487316    1.2836
  29200.953      -0.0097759    1.37699
  29201.386       0.030622    1.46935
  29201.815       0.0708892    1.55989
  29202.239       0.110657        1.64508
  29202.804       0.159514        1.74518
  29203.228       0.191965        1.80819
  29203.671       0.220335        1.8593
  29204.129       0.243452        1.8979
  29204.602       0.262131        1.92495
  29205.260       0.279        1.94226
  29205.766       0.286447        1.9436
  29206.293       0.289884        1.93594
  29206.794       0.289902        1.92152
  29207.472       0.284967        1.89461
  29207.954       0.277669        1.87137
  29208.417       0.268128        1.84566
  29208.871       0.256418        1.81974
  29209.309       0.243725        1.79495
  29209.884       0.225181        1.76498
  29210.303       0.210695        1.74505
  29210.737       0.196882        1.72738
  29211.176       0.183471        1.712
  29211.795       0.167295        1.69441
  29212.273       0.156606        1.68379
  29212.760       0.147614        1.6747
  29213.267       0.14009        1.66711
  29213.799       0.133539        1.66092
  29214.515       0.126276        1.65389
  29215.027       0.122063        1.64951
  29215.530       0.118397        1.64648
  29216.007       0.115121        1.64379
  29216.641       0.110223        1.64068
  29217.095       0.106659        1.63876
  29217.529       0.102641        1.6379
  29217.973       0.0981309    1.63695
  29218.407       0.0934139    1.63655
  29219.007       0.0863591    1.63748
  29219.470       0.0806472    1.63848
  29219.933       0.0748123    1.6399
  29220.426       0.0686561    1.64174
  29220.918       0.0625136    1.64391
  29221.621       0.054498    1.64693
  29222.143       0.0487071    1.64984
  29222.650       0.0430774    1.65264
  29223.158       0.037702    1.65489
  29223.792       0.0312828    1.65818
  29224.241       0.0271067    1.66015
  29224.689       0.0233042    1.66142
  29225.114       0.0199018    1.66237
  29225.534       0.016858    1.66338
  29226.100       0.0136369    1.66333
  29226.514       0.0116739    1.66311
  29226.958       0.0103347    1.66277
  29227.402       0.00943122    1.66161
  29227.866       0.00877574    1.66015
  29228.515       0.00884591    1.65789
  29229.008       0.00958306    1.655
  29229.530       0.0105549    1.65213
  29230.043       0.0122705    1.64897
  29230.711       0.0153745    1.64424
  29231.654       0.0214783    1.63551
  29232.835       0.0322525    1.62288
  29233.826       0.0430327    1.61305
  29234.832       0.0537749    1.60464
  29235.920       0.0639565    1.60035
  29237.273       0.0733415    1.60142
  29238.636       0.0796168    1.60804
  29239.734       0.0823511    1.61674
  29240.912       0.0824086    1.62938
  29242.069       0.0803545    1.64251
  29243.286       0.0774404    1.65484
  29244.815       0.0748002    1.66772
  29246.217       0.0747568    1.6786
  29247.668       0.0782686    1.69008
  29248.861       0.0843173    1.69867
  29250.190       0.0936643    1.70674
  29251.603       0.104087        1.71027
  29253.148       0.114433        1.7098
  29254.678       0.12307        1.70382
  29256.042       0.128566        1.69495
  29257.450       0.130594        1.68206
  29258.766       0.128505        1.66926
  29260.389       0.122535        1.65543
  29261.925       0.114865        1.64366
  29263.461       0.105828        1.63276
  29264.875       0.0969931    1.62469
  29266.319       0.0893501    1.61995
  29268.085       0.0818889    1.6181
  29269.778       0.0757881    1.62004
  29271.354       0.0697597    1.62351
  29272.945       0.0635819    1.62982
  29274.605       0.0580568    1.63656
  29276.314       0.0542798    1.6439
  29278.223       0.0523326    1.65412
  29279.913       0.0530167    1.66526
  29281.691       0.0561801    1.67728
  29283.469       0.0606168    1.68703
  29285.375       0.0644148    1.69312
  29287.271       0.0681378    1.69487
  29288.972       0.0710639    1.69221
  29290.633       0.0731371    1.68752
  29292.667       0.0750645    1.67938
  29294.589       0.0767284    1.67121
  29296.310       0.078099    1.66324
  29298.237       0.0795105    1.65641
  29300.248       0.0797709    1.65116
  29302.386       0.0795453    1.64743
  29304.132       0.07865    1.64607
  29306.085       0.0778819    1.64546
  29308.342       0.0778227    1.64628
  29310.477       0.0790454    1.64877
  29312.396       0.0815548    1.65167
  29314.419       0.0848676    1.65527
  29316.662       0.0885911    1.65958
  29318.848       0.0923342    1.6639
  29320.674       0.0944548    1.66769
  29322.855       0.0960609    1.67073
  29325.184       0.0957636    1.6721
  29327.238       0.0941388    1.67326
  29329.247       0.0921171    1.67313
  29331.552       0.089968    1.67333
  29333.848       0.0883561    1.67284
  29336.045       0.086044    1.67112
  29338.243       0.0836745    1.66958
  29340.845       0.0808382    1.66698
  29343.137       0.0785612    1.66438
  29345.405       0.0767753    1.66202
  29347.968       0.0751966    1.6599
  29350.330       0.0738876    1.6585
  29352.476       0.072745    1.65771
  29354.908       0.0719217    1.65707
  29357.517       0.0721791    1.65632
  29359.812       0.07298    1.65634
  29362.171       0.0739301    1.65634
  29364.895       0.0757657    1.65729
  29367.265       0.0752653    1.65771
  29369.778       0.0750226    1.65797
  29372.572       0.0746273    1.65897
  29375.155       0.0745233    1.65963
  29377.675       0.0748737    1.65996
  29380.604       0.0752112    1.6604
  29382.957       0.0754784    1.66023
  29385.541       0.0755916    1.65958
  29388.393       0.0757508    1.6585
  29390.880       0.075944    1.65699
  29393.481       0.0765164    1.65522
  29396.384       0.0765027    1.65315
  29399.060       0.0763985    1.65072
  29401.796       0.0764041    1.64839
  29404.868       0.076222    1.64608
  29407.561       0.0766133    1.64407
  29410.585       0.0768805    1.64249
  29413.481       0.0773352    1.64086
  29416.106       0.0773786    1.63994
  29419.127       0.0774245    1.63964
  29421.876       0.0768644    1.63914
  29424.710       0.0758708    1.6392
  29427.788       0.0742494    1.63946
  29430.623       0.0728102    1.63937
  29433.677       0.0717024    1.64007
  29436.726       0.0708995    1.63992
  29439.687       0.0700471    1.64025
  29442.866       0.0691101    1.64024
  29445.754       0.0686275    1.63967
  29448.553       0.0678065    1.63839
  29451.863       0.0669457    1.63688
  29454.614       0.0659115    1.63476
  29457.821       0.0650478    1.63262
  29461.039       0.0636229    1.63051
  29464.035       0.062538    1.62819
  29467.492       0.0618743    1.62557
  29470.509       0.061504    1.62336
  29473.799       0.0618484    1.62198
  29477.160       0.0627384    1.62063
  29480.124       0.0636031    1.61849
  29483.640       0.064214    1.61713
  29486.714       0.0643099    1.61536
  29490.197       0.0649386    1.61498
  29493.482       0.065389    1.61435
  29496.767       0.0655925    1.6138
  29500.342       0.0653619    1.61391
  29503.495       0.0647309    1.61402
  29507.235       0.0636971    1.61337
  29510.325       0.0628414    1.61328
  29513.903       0.0620593    1.61303
  29517.322       0.0611878    1.61215
  29520.723       0.0604498    1.61121
  29524.393       0.060208    1.6104
  29527.730       0.0602215    1.60951
  29531.547       0.0594485    1.6074
  29535.050       0.0581841    1.60583
  29538.833       0.0568936    1.6039
  29542.264       0.055662    1.60232
  29545.864       0.0558434    1.6004
  29549.391       0.0569782    1.59804
  29552.984       0.0582075    1.59645
  29556.712       0.0590337    1.5948
  29560.241       0.0591409    1.59312
  29564.271       0.0585613    1.59153
  29567.747       0.0576436    1.59036
  29571.774       0.05595    1.58923
  29575.107       0.0544255    1.58824
  29579.091       0.0529333    1.58715
  29582.606       0.0518537    1.58682
  29586.606       0.050873    1.58623
  29590.218       0.0502431    1.58539
  29594.241       0.0496392    1.58523
  29597.960       0.0491713    1.5846
  29602.075       0.0487603    1.58328
  29605.720       0.0478987    1.58294
  29609.692       0.0477674    1.58169
  29613.520       0.048028    1.58055
  29617.489       0.0483547    1.58018
  29621.429       0.049196    1.57811
  29625.466       0.0499122    1.57736
  29629.463       0.0506159    1.57589
  29633.477       0.05087    1.57443
  29637.547       0.0505873    1.57305
  29641.512       0.0494482    1.57166
  29645.589       0.0484426    1.57055
  29649.773       0.0473958    1.56852
  29653.868       0.0458913    1.56699
  29658.194       0.044641    1.56542
  29662.271       0.0436424    1.56448
  29666.610       0.0431508    1.56349
  29670.539       0.0427642    1.56221
  29675.011       0.0422832    1.56132
  29678.932       0.0416636    1.56084
  29683.512       0.0405738    1.55976
  29687.652       0.039659    1.55955
  29692.150       0.03916    1.55883
  29696.326       0.0386574    1.55749
  29701.034       0.0388863    1.5568
  29705.248       0.0400663    1.55664
  29709.666       0.0402249    1.55519
  29714.226       0.040516    1.55415
  29718.556       0.0405642    1.55322
  29723.356       0.0398541    1.55146
  29727.734       0.0395202    1.55059
  29732.375       0.038521    1.54917
  29736.649       0.037456    1.5484
  29741.329       0.036564    1.54682
  29745.909       0.0356501    1.54571
  29750.476       0.0347147    1.5444
  29755.210       0.0334827    1.54373
  29759.815       0.032525    1.54255
  29764.781       0.0322798    1.54143
  29769.039       0.0320422    1.54048
  29773.876       0.0323    1.53937
  29778.502       0.0322666    1.53843
  29783.174       0.0327685    1.53795
  29788.127       0.0334425    1.53756
  29792.803       0.0335015    1.53691
  29797.719       0.0337277    1.53591
  29802.362       0.0332821    1.53518
  29807.038       0.0328923    1.53392
  29811.948       0.032324    1.53312
  29816.626       0.0313973    1.53246
  29821.784       0.0307104    1.53112
  29826.486       0.0300965    1.53069
  29831.392       0.0295174    1.52953
  29836.270       0.0285424    1.52865
  29841.073       0.0278709    1.52731
  29846.183       0.027571    1.52693
  29851.086       0.0260476    1.52555
  29856.042       0.0254715    1.52392
  29861.228       0.0248017    1.523
  29865.958       0.0246588    1.52185
  29871.132       0.0244838    1.52087
  29876.044       0.0247574    1.51959
  29881.074       0.024995    1.51859
  29886.581       0.0250718    1.51817
  29891.477       0.0250401    1.51678
  29896.747       0.024885    1.51594
  29901.810       0.0246789    1.51813
  29906.721       0.0241242    1.5138
  29912.125       0.0238685    1.51314
  29917.357       0.0231798    1.51194
  29922.524       0.0224134    1.51145
  29927.984       0.0217962    1.51047
  29933.012       0.0209762    1.50948
  29938.338       0.0202771    1.5086
  29943.784       0.0197906    1.50768
  29949.037       0.0191969    1.50646
  29954.538       0.0184595    1.5057
  29959.970       0.0180784    1.50478
  29965.060       0.0176603    1.5035
  29970.464       0.0176114    1.50291
  29976.101       0.0176304    1.50193
  29981.263       0.0175345    1.50149
  29986.797       0.0177275    1.50052
  29992.436       0.0169355    1.49921
  29997.495       0.0167153    1.4979
  30003.102       0.016289    1.49705
  30008.536       0.0159418    1.4962
  30013.879       0.0157119    1.49541
  30019.620       0.0150827    1.49477
  30025.287       0.0143054    1.49419
  30030.553       0.0139034    1.49347
  30036.312       0.013177    1.49286
  30041.990       0.0124295    1.49173
  30047.561       0.0116049    1.49025
  30053.254       0.0108385    1.48964
  30059.217       0.0107352    1.48894
  30064.816       0.0100866    1.48845
  30070.345       0.0101572    1.48775
  30076.330       0.00960996    1.48648
  30082.303       0.00929032    1.48565
  30087.942       0.00924497    1.48478
  30093.872       0.00907594    1.48379
  30099.728       0.00880476    1.48274
  30105.440       0.00861007    1.48125
  30111.321       0.00918999    1.48166
  30117.546       0.00805229    1.47983
  30123.473       0.0076942    1.47842
  30129.236       0.00706677    1.47751
  30135.297       0.00654842    1.4768
  30141.324       0.00593552    1.47611
  30147.089       0.00527436    1.47513
  30153.085       0.00427768    1.47379
  30159.364       0.00392349    1.47284
  30165.187       0.00356517    1.47184
  30171.055       0.00310884    1.47118
  30177.274       0.00271276    1.47012