File: root/data/SnS_111.xdi
# XDI/1.0 Demeter/0.9.26
# Beamline.name: BM08-LISA
# Column.1: energy eV
# Column.2: mutrans
# Column.3: murefer
# Element.edge: K
# Element.symbol: Sn
# Facility.name: ESRF
# Facility.xray_source: Bending magnet
# Mono.d_spacing: 3.134692
# Mono.name: Si(111)
# Mono.notes: LNT cooled
# Sample.formula: SnS
# Sample.name: Tin(II) sulfide
# Sample.reference: Sn metal foil
# Scan.start_time: 2023-09-22T12:30:43
# ///
# room temperature
#------------------------
#  energy  mutrans  murefer
  29000.717       0.414849       0.151685
  29004.309       0.414689       0.151835
  29008.875       0.414648       0.151893
  29013.877       0.414785       0.151903
  29018.353       0.414764       0.152049
  29023.108       0.414546       0.152393
  29028.393       0.414663       0.152725
  29033.059       0.414556       0.153016
  29037.977       0.414697       0.15304
  29043.379       0.414426       0.153362
  29048.115       0.414851       0.153698
  29052.768       0.414683       0.154112
  29058.120       0.41487       0.15433
  29062.758       0.414905       0.154708
  29067.575       0.414741       0.155282
  29072.904       0.415219       0.155763
  29077.547       0.415382       0.156395
  29082.443       0.415569       0.156992
  29087.499       0.41551       0.157666
  29092.221       0.416025       0.158539
  29097.186       0.416649       0.159687
  29102.695       0.416771       0.160861
  29107.506       0.416885       0.162116
  29112.542       0.418016       0.163729
  29117.692       0.418552       0.16546
  29122.377       0.419441       0.167157
  29127.251       0.420234       0.169339
  29132.621       0.42143       0.172004
  29137.320       0.422877       0.175176
  29141.947       0.424475       0.178721
  29147.434       0.426494       0.183578
  29152.241       0.429303       0.189746
  29157.275       0.433194       0.197737
  29162.516       0.437814       0.207759
  29167.337       0.4445       0.222534
  29172.366       0.454778       0.244127
  29177.847       0.471882       0.279026
  29182.280       0.500217       0.336077
  29182.814       0.505464       0.346321
  29183.395       0.510923       0.35807
  29183.695       0.513997       0.364714
  29184.229       0.519996       0.376269
  29184.801       0.52702       0.390149
  29185.120       0.5315       0.399139
  29185.692       0.538932       0.414602
  29186.282       0.54771       0.431929
  29186.639       0.553779       0.443925
  29187.239       0.563561       0.463441
  29187.886       0.575467       0.487275
  29188.523       0.589084       0.513842
  29188.898       0.597382       0.530808
  29189.527       0.612736       0.562118
  29190.155       0.630381       0.596076
  29190.511       0.642383       0.619329
  29191.112       0.662794       0.659238
  29191.731       0.688627       0.707893
  29192.068       0.705102       0.739384
  29192.641       0.732951       0.792642
  29193.231       0.768001       0.856637
  29193.550       0.790935       0.899501
  29194.094       0.829151       0.969437
  29194.648       0.873615        1.05088
  29194.948       0.902424        1.10256
  29195.474       0.948862        1.18803
  29196.018        1.00036        1.28521
  29196.327        1.03288        1.34827
  29196.843        1.07988        1.44123
  29197.369        1.12736        1.54141
  29197.669        1.15229        1.59951
  29198.194        1.18882        1.6855
  29198.767        1.22019        1.7688
  29199.095        1.23275        1.81173
  29199.640        1.24727        1.86411
  29200.231        1.25234        1.90279
  29200.550        1.25239        1.91773
  29201.151        1.24611        1.92943
  29201.779        1.23261        1.92779
  29202.136        1.2234        1.92189
  29202.755        1.20948        1.90781
  29203.413        1.19035        1.88764
  29203.779        1.18186        1.87383
  29204.417        1.16585        1.85217
  29205.083        1.14977        1.82741
  29205.459        1.13969        1.81334
  29206.060        1.12658        1.79335
  29206.708        1.11694        1.77389
  29207.046        1.11043        1.76378
  29207.628        1.10331        1.7502
  29208.229        1.09461        1.73768
  29208.567        1.09163        1.73144
  29209.121        1.08649        1.72321
  29209.712        1.08209        1.71589
  29210.013        1.07994        1.71248
  29210.529        1.07609        1.70861
  29211.084        1.0739        1.70483
  29211.403        1.07122        1.70281
  29211.929        1.06942        1.70054
  29212.483        1.06813        1.69884
  29212.812        1.0659        1.698
  29213.338        1.06533        1.69689
  29213.911        1.06358        1.69708
  29214.258        1.06198        1.69657
  29214.822        1.06061        1.69771
  29215.442        1.05956        1.69838
  29215.780        1.05795        1.69966
  29216.363        1.05628        1.70145
  29217.020        1.05588        1.70338
  29217.387        1.0547        1.70477
  29218.044        1.05239        1.70735
  29218.712        1.05381        1.70968
  29219.078        1.05319        1.71096
  29219.736        1.05225        1.71247
  29220.403        1.05152        1.71427
  29220.770        1.05064        1.71474
  29221.390        1.05036        1.71538
  29222.029        1.05092        1.71514
  29222.367        1.05043        1.71503
  29222.950        1.04991        1.71392
  29223.552        1.04885        1.71229
  29223.881        1.04773        1.71084
  29224.445        1.04856        1.70839
  29225.009        1.0465        1.70461
  29225.310        1.04674        1.70267
  29225.855        1.04669        1.69897
  29226.400        1.04489        1.69418
  29226.710        1.04519        1.69119
  29227.237        1.04455        1.68641
  29227.792        1.04339        1.68143
  29228.628        1.04301        1.67409
  29229.832        1.04305        1.66616
  29231.026        1.04356        1.66148
  29232.315        1.04657        1.66113
  29233.312        1.04907        1.66397
  29234.648        1.05288        1.67058
  29235.965        1.05889        1.68019
  29237.206        1.06505        1.6911
  29238.392        1.06941        1.70198
  29239.794        1.07553        1.71526
  29240.886        1.07798        1.72522
  29241.959        1.08095        1.73407
  29243.032        1.0808        1.74171
  29244.415        1.08199        1.7498
  29245.583        1.08231        1.75405
  29247.108        1.08227        1.7554
  29248.737        1.08065        1.75215
  29250.027        1.08179        1.74731
  29251.580        1.08023        1.73784
  29253.087        1.08066        1.72666
  29254.519        1.0807        1.71472
  29255.904        1.07771        1.70229
  29257.204        1.07635        1.6926
  29258.580        1.07521        1.68409
  29259.993        1.07035        1.67791
  29261.501        1.06787        1.67491
  29263.065        1.06526        1.67432
  29264.724        1.06085        1.67628
  29266.666        1.05942        1.68058
  29268.175        1.05701        1.68598
  29269.910        1.0535        1.69288
  29271.286        1.05177        1.69933
  29272.937        1.05058        1.70788
  29274.644        1.05025        1.71695
  29276.134        1.04957        1.72434
  29278.069        1.05053        1.73286
  29280.059        1.05308        1.73866
  29282.013        1.05677        1.74211
  29283.834        1.05931        1.74105
  29285.581        1.06504        1.7373
  29287.233        1.07043        1.73048
  29288.913        1.07509        1.72318
  29290.660        1.07892        1.71591
  29292.870        1.08265        1.70884
  29294.872        1.08497        1.70367
  29296.809        1.08371        1.70008
  29298.897        1.08489        1.69813
  29300.872        1.08343        1.69738
  29302.488        1.08147        1.69804
  29304.406        1.07828        1.70016
  29306.448        1.07496        1.70259
  29308.339        1.07294        1.70564
  29310.608        1.0702        1.70902
  29312.821        1.06838        1.71297
  29314.845        1.06539        1.71697
  29316.775        1.0651        1.71941
  29318.667        1.0633        1.72167
  29320.663        1.06337        1.72301
  29323.133        1.06237        1.72397
  29325.433        1.06251        1.72385
  29327.686        1.06219        1.72295
  29330.043        1.06216        1.72186
  29331.994        1.06271        1.71971
  29334.220        1.06341        1.71818
  29336.285        1.06423        1.71616
  29338.842        1.06559        1.71411
  29341.495        1.06669        1.71262
  29344.007        1.06811        1.71072
  29346.016        1.06931        1.71018
  29348.244        1.06957        1.7094
  29350.500        1.07036        1.70865
  29352.928        1.07093        1.70898
  29355.583        1.06999        1.70888
  29358.439        1.07071        1.70919
  29360.725        1.07168        1.70941
  29362.898        1.07156        1.71008
  29365.366        1.06979        1.71059
  29367.739        1.0706        1.71131
  29370.302        1.07075        1.71175
  29373.189        1.06953        1.71213
  29375.801        1.06842        1.71198
  29377.985        1.06638        1.71156
  29380.484        1.06635        1.71111
  29383.192        1.06432        1.70959
  29385.825        1.06406        1.70847
  29388.705        1.06289        1.70661
  29391.319        1.06197        1.70477
  29393.820        1.06102        1.70255
  29396.407        1.06049        1.70067
  29399.584        1.06007        1.69905
  29402.610        1.05898        1.69733
  29405.417        1.05941        1.69613
  29407.978        1.05937        1.69498
  29410.767        1.05762        1.69382
  29413.490        1.05897        1.69356
  29416.785        1.05946        1.69322
  29419.614        1.05939        1.69278
  29422.444        1.05884        1.69314
  29425.150        1.05961        1.69325
  29427.733        1.06015        1.69324
  29430.898        1.05942        1.69351
  29434.102        1.05966        1.69385
  29436.992        1.05955        1.69319
  29439.710        1.05875        1.69195
  29442.553        1.05889        1.69093
  29445.741        1.05884        1.69006
  29448.995        1.05871        1.68841
  29452.270        1.05778        1.68672
  29455.048        1.05685        1.68493
  29457.961        1.05602        1.68275
  29461.525        1.0555        1.6808
  29464.811        1.05301        1.6788
  29468.051        1.05144        1.67691
  29470.804        1.05261        1.67544
  29474.017        1.05124        1.6738
  29477.612        1.05071        1.67274
  29480.740        1.05048        1.67183
  29483.821        1.0492        1.67087
  29486.835        1.04835        1.67031
  29490.070        1.04842        1.66977
  29493.641        1.04886        1.6693
  29496.974        1.04869        1.66882
  29500.010        1.04732        1.66871
  29503.382        1.04539        1.66836
  29506.841        1.04614        1.668
  29510.445        1.0469        1.66719
  29514.002        1.04578        1.66638
  29517.070        1.04428        1.66559
  29520.398        1.04594        1.66462
  29524.447        1.04523        1.66324
  29528.189        1.04551        1.66171
  29531.251        1.04486        1.66063
  29534.755        1.04386        1.65868
  29538.644        1.04385        1.65716
  29542.409        1.04274        1.65501
  29545.743        1.04288        1.65351
  29549.068        1.04156        1.65219
  29552.740        1.04185        1.65057
  29556.634        1.0406        1.64926
  29560.105        1.04088        1.6479
  29563.414        1.03921        1.6468
  29567.042        1.03743        1.64591
  29571.363        1.03848        1.64486
  29574.973        1.03704        1.64441
  29578.343        1.03709        1.6436
  29582.301        1.037        1.64321
  29586.367        1.03521        1.64245
  29590.346        1.03542        1.64176
  29593.990        1.03371        1.64092
  29597.972        1.0335        1.6401
  29601.926        1.0338        1.63939
  29605.794        1.03234        1.63807
  29609.384        1.03324        1.63682
  29613.225        1.03293        1.63615
  29617.502        1.03303        1.63486
  29621.364        1.03242        1.63392
  29624.977        1.03176        1.6324
  29629.286        1.03093        1.63103
  29633.596        1.0301        1.63
  29637.483        1.03029        1.62844
  29641.186        1.03009        1.62739
  29645.713        1.03016        1.6259
  29650.047        1.02929        1.62461
  29654.102        1.02921        1.62364
  29658.188        1.02806        1.62235
  29662.439        1.02792        1.62123
  29666.817        1.02699        1.62055
  29670.741        1.02662        1.61981
  29674.908        1.0263        1.61889
  29679.261        1.02548        1.6179
  29683.509        1.0244        1.61749
  29687.456        1.02335        1.61663
  29692.230        1.02368        1.61604
  29696.860        1.02375        1.61492
  29700.947        1.02348        1.61394
  29705.172        1.02212        1.6131
  29709.980        1.02151        1.61182
  29714.635        1.02095        1.61084
  29718.659        1.01961        1.61001
  29723.453        1.0196        1.60906
  29728.024        1.02098        1.60771
  29732.295        1.02033        1.60712
  29736.373        1.01992        1.60616
  29741.367        1.01901        1.60539
  29745.925        1.01866        1.60389
  29750.201        1.01806        1.60288
  29754.780        1.01705        1.60198
  29759.732        1.01678        1.60088
  29764.110        1.01735        1.59999
  29768.859        1.01718        1.59892
  29774.333        1.01699        1.59819
  29778.734        1.01641        1.59721
  29783.254        1.01625        1.59657
  29788.294        1.01522        1.59589
  29792.856        1.01373        1.59496
  29797.429        1.01398        1.59415
  29802.316        1.01403        1.59361
  29807.411        1.01263        1.59276
  29811.685        1.01327        1.59207
  29816.822        1.0123        1.59129
  29822.166        1.01143        1.59025
  29826.582        1.01127        1.58934
  29831.685        1.01118        1.58851
  29837.152        1.01053        1.58713
  29841.857        1.00979        1.58648
  29846.749        1.00897        1.58575
  29852.104        1.00868        1.58441
  29856.794        1.00759        1.58366
  29861.494        1.00868        1.58237
  29866.884        1.00823        1.58148
  29871.706        1.00738        1.58042
  29876.402        1.00738        1.57967
  29882.180        1.00664        1.57857
  29887.174        1.00599        1.57769
  29892.259        1.00592        1.57662
  29897.768        1.00554        1.5756
  29903.062        1.00489        1.57476
  29907.788        1.00414        1.57395
  29913.470        1.00433        1.57336
  29918.682        1.00374        1.57261
  29923.303        1.00287        1.57181
  29928.972        1.00252        1.57106
  29934.248        1.00244        1.56978
  29939.259        1.00154        1.5686
  29945.072        1.00121        1.56808
  29950.453        1.00039        1.56696
  29955.618        1.00068        1.56608
  29961.575       0.999351        1.56466
  29966.823       0.999707        1.56374
  29972.340       0.998727        1.56324
  29978.116       0.997314        1.56202
  29983.202       0.997314        1.56151
  29988.705       0.997327        1.56091
  29994.497       0.996905        1.56035
  29999.817       0.997364        1.55909
  30005.207       0.996242        1.55817
  30011.353       0.996213        1.55748
  30016.747       0.995845        1.55633
  30022.481       0.995422        1.55538
  30028.455       0.994183        1.55488
  30033.776       0.994191        1.55406
  30039.834       0.994054        1.5532
  30045.388       0.993794        1.55247
  30050.676       0.992792        1.55155
  30056.800       0.992907        1.55079
  30062.261       0.99181        1.54934
  30067.773       0.991575        1.54896
  30074.014       0.991195        1.54779
  30079.750       0.989079        1.54662
  30085.727       0.989861        1.54584
  30091.737       0.990109        1.54493
  30097.400       0.988886        1.54417
  30103.533       0.988697        1.54321
  30109.440       0.988221        1.54211
  30114.820       0.98757        1.54116
  30121.321       0.98722        1.54019
  30127.015       0.986865        1.53924
  30132.811       0.985817        1.53828
  30139.309       0.985896        1.53767
  30145.070       0.98541        1.53644
  30151.683       0.984847        1.53532
  30157.699       0.983825        1.53421
  30163.567       0.983975        1.53353
  30170.049       0.983053        1.53299