File: root/data/Ta2O5_311.xdi
# XDI/1.0 Demeter/0.9.26
# Beamline.name: BM08-GILDA
# Column.1: energy eV
# Column.2: mutrans
# Column.3: murefer
# Element.edge: L3
# Element.symbol: Ta
# Facility.name: ESRF
# Facility.xray_source: Bending magnet
# Mono.d_spacing: 1.63751
# Mono.name: Si(311)
# Mono.notes: water cooled
# Sample.formula: Ta2O5
# Sample.name: Tantalum(V) oxide
# Sample.reference: Ta metal foil
# Scan.start_time: 2016-07-11T11:52:00
# ///
# room temperature
#------------------------
#  energy  mutrans  murefer
  9681.72      -0.836606      -0.134232
  9691.75      -0.843431      -0.144463
  9701.81      -0.850754      -0.150088
  9711.85      -0.858254      -0.159536
  9721.91      -0.864916      -0.168478
  9732      -0.871075      -0.182564
  9742.1      -0.878807      -0.185961
  9752.24      -0.886385      -0.196099
  9762.39      -0.892582      -0.204123
  9772.56      -0.899453      -0.214373
  9782.76      -0.906308      -0.221759
  9792.99      -0.912919      -0.23014
  9803.23      -0.91924      -0.238632
  9813.5      -0.925085      -0.247319
  9823.79      -0.930527      -0.255368
  9834.12      -0.934703      -0.262493
  9844.45      -0.936577      -0.2672
  9853.02      -0.933495      -0.267016
  9855.05      -0.9318      -0.26511
  9857.06      -0.929422      -0.263208
  9859.07      -0.926387      -0.260944
  9861.31      -0.921809      -0.255969
  9861.6      -0.921148      -0.25544
  9861.89      -0.920444      -0.25508
  9862.18      -0.919777      -0.254244
  9862.47      -0.918941      -0.253816
  9862.75      -0.918099      -0.25294
  9863.05      -0.91716      -0.252031
  9863.33      -0.91629      -0.251097
  9863.62      -0.915323      -0.249979
  9863.91      -0.914333      -0.249198
  9864.2      -0.913333      -0.247657
  9864.49      -0.912298      -0.246488
  9864.78      -0.911145      -0.244896
  9865.07      -0.90977      -0.243756
  9865.36      -0.908517      -0.241869
  9865.65      -0.907112      -0.240271
  9865.94      -0.905688      -0.238696
  9866.23      -0.904259      -0.237313
  9866.52      -0.902915      -0.235601
  9866.81      -0.901401      -0.233533
  9867.11      -0.899821      -0.231727
  9867.4      -0.898081      -0.229606
  9867.69      -0.896341      -0.227437
  9867.98      -0.894429      -0.225582
  9868.27      -0.892291      -0.22301
  9868.56      -0.890197      -0.220073
  9868.85      -0.888061      -0.217415
  9869.13      -0.885996      -0.214578
  9869.43      -0.883528      -0.211321
  9869.72      -0.881028      -0.208386
  9870.05      -0.878297      -0.204673
  9870.37      -0.875031      -0.200511
  9870.67      -0.871902      -0.196074
  9870.97      -0.868818      -0.191402
  9871.25      -0.865653      -0.187049
  9871.54      -0.862188      -0.182257
  9871.85      -0.858365      -0.176903
  9872.17      -0.854178      -0.170771
  9872.45      -0.850342      -0.164821
  9872.75      -0.845854      -0.158218
  9873.04      -0.840806      -0.150665
  9873.33      -0.835359      -0.142243
  9873.62      -0.829462      -0.132965
  9873.91      -0.823306      -0.122968
  9874.2      -0.817182      -0.112457
  9874.49      -0.810747      -0.101622
  9874.78      -0.804021      -0.0901915
  9875.07      -0.797054      -0.0781997
  9875.34      -0.789961      -0.0653458
  9875.65      -0.781165      -0.0493978
  9875.94      -0.772166      -0.0322474
  9876.27      -0.760963      -0.0102231
  9876.56      -0.749782       0.0122899
  9876.86      -0.737588       0.0375423
  9877.15      -0.725208       0.0642446
  9877.44      -0.711493       0.0946663
  9877.73      -0.696991       0.127155
  9878.02      -0.681423       0.163933
  9878.31      -0.66426       0.205886
  9878.6      -0.645971       0.251295
  9878.87      -0.626587       0.301458
  9879.18      -0.601946       0.36605
  9879.47      -0.577778       0.431085
  9879.78      -0.548594       0.510751
  9880.1      -0.515074       0.601594
  9880.41      -0.480592       0.694336
  9880.72      -0.43912       0.80429
  9881.01      -0.396111       0.914355
  9881.31      -0.346527        1.03566
  9881.59      -0.287915        1.17086
  9881.88      -0.223782        1.30999
  9882.18      -0.148245        1.46162
  9882.47      -0.0684582    1.60926
  9882.76       0.013524    1.74889
  9883.05       0.103014        1.88901
  9883.34       0.199596        2.02581
  9883.63       0.305036        2.15957
  9883.92       0.423134        2.29272
  9884.21       0.549514        2.41622
  9884.5       0.674417        2.51579
  9884.8       0.80848        2.60065
  9885.08       0.933629        2.65356
  9885.38        1.05554        2.67141
  9885.67        1.15618        2.65476
  9885.96        1.24612        2.60988
  9886.25        1.31481        2.54097
  9886.54        1.37111        2.45035
  9886.84        1.41032        2.35779
  9887.13        1.4384        2.25409
  9887.42        1.45529        2.15051
  9887.71        1.46291        2.04646
  9888        1.46175        1.95552
  9888.29        1.45316        1.8672
  9888.58        1.43836        1.79217
  9888.88        1.41597        1.71745
  9889.17        1.3866        1.64888
  9889.46        1.34783        1.58318
  9889.75        1.30137        1.52658
  9890.04        1.23973        1.46967
  9890.33        1.17009        1.42176
  9890.62        1.09577        1.38095
  9890.92        1.02226        1.34786
  9891.2       0.945562        1.31949
  9891.5       0.865171        1.29343
  9891.79       0.789557        1.27223
  9892.08       0.71176        1.25264
  9892.38       0.630315        1.23242
  9892.67       0.556183        1.21603
  9892.96       0.485366        1.19961
  9893.25       0.415732        1.18417
  9893.55       0.351736        1.1696
  9893.88       0.290588        1.15501
  9894.17       0.240449        1.14229
  9894.46       0.194898        1.12993
  9894.75       0.15394        1.11723
  9895.04       0.118409        1.105
  9895.32       0.0862733    1.09293
  9895.63       0.0555802    1.07967
  9895.92       0.0286844    1.06614
  9896.21       0.00548225    1.05257
  9896.51      -0.0151825    1.039
  9896.84      -0.0341183    1.02455
  9897.13      -0.0484874    1.01254
  9897.42      -0.0621254   0.999356
  9897.71      -0.0744571   0.986437
  9898.01      -0.0857022   0.973783
  9898.29      -0.0956954   0.96167
  9898.59      -0.105954       0.948523
  9898.88      -0.114419       0.937188
  9899.17      -0.121953       0.9269
  9899.47      -0.128856       0.917722
  9899.76      -0.135068       0.909083
  9900.05      -0.140722       0.901169
  9900.34      -0.146072       0.893604
  9900.64      -0.151259       0.886751
  9900.93      -0.156023       0.879724
  9901.22      -0.160571       0.873005
  9901.51      -0.164819       0.866505
  9901.8      -0.16849       0.860456
  9902.1      -0.171945       0.853992
  9902.39      -0.175181       0.848308
  9902.68      -0.17836       0.842324
  9902.97      -0.181193       0.836352
  9903.27      -0.183747       0.830586
  9903.56      -0.186324       0.824828
  9903.85      -0.188851       0.819162
  9904.14      -0.191401       0.813687
  9904.44      -0.193651       0.808234
  9904.74      -0.195829       0.803789
  9905.06      -0.197931       0.799607
  9905.36      -0.199624       0.795601
  9905.65      -0.201243       0.79212
  9905.93      -0.202622       0.789128
  9906.23      -0.204147       0.786344
  9906.53      -0.205677       0.784419
  9906.82      -0.207121       0.782106
  9907.11      -0.208529       0.78001
  9907.4      -0.209978       0.778782
  9907.7      -0.21139       0.777404
  9907.99      -0.212853       0.776347
  9908.28      -0.214339       0.775191
  9908.56      -0.215883       0.774267
  9908.87      -0.21756       0.773116
  9909.16      -0.219489       0.771908
  9909.45      -0.221389       0.770298
  9909.76      -0.223451       0.768418
  9910.08      -0.225739       0.766269
  9910.37      -0.22785       0.764797
  9910.67      -0.229887       0.762214
  9910.96      -0.23207       0.760254
  9912.03      -0.240245       0.753141
  9913.03      -0.24815       0.748169
  9914.05      -0.254501       0.745268
  9915.08      -0.257423       0.744194
  9916.07      -0.255285       0.744326
  9917.08      -0.249168       0.744295
  9918.08      -0.240529       0.742226
  9919.09      -0.230458       0.737595
  9920.09      -0.221034       0.730311
  9921.1      -0.211729       0.7216
  9922.11      -0.202206       0.710735
  9923.11      -0.192083       0.701013
  9924.12      -0.180737       0.693454
  9925.15      -0.169699       0.689396
  9926.22      -0.158083       0.689051
  9927.24      -0.146297       0.692772
  9928.23      -0.135361       0.698084
  9929.24      -0.124801       0.705038
  9930.25      -0.114235       0.712125
  9931.26      -0.104642       0.718511
  9932.27      -0.0947707   0.72522
  9933.28      -0.0870274   0.730246
  9934.29      -0.0807471   0.733929
  9935.3      -0.0760844   0.735725
  9936.32      -0.0739591   0.735888
  9937.32      -0.0733051   0.734487
  9938.35      -0.0743997   0.732013
  9939.34      -0.0766088   0.728977
  9940.35      -0.0799633   0.725747
  9941.36      -0.0844755   0.722968
  9942.37      -0.0894916   0.720203
  9943.38      -0.0953485   0.717303
  9944.41      -0.102123       0.715154
  9945.41      -0.108797       0.712776
  9946.46      -0.116274       0.711322
  9947.51      -0.123925       0.710807
  9948.53      -0.131452       0.710234
  9949.54      -0.138617       0.711039
  9950.55      -0.144836       0.712763
  9951.57      -0.15095       0.715278
  9952.61      -0.156551       0.718105
  9953.67      -0.161399       0.721109
  9954.71      -0.165606       0.723168
  9955.71      -0.169323       0.725181
  9956.72      -0.172417       0.726672
  9957.73      -0.175428       0.726614
  9958.75      -0.177562       0.725173
  9959.76      -0.179244       0.722178
  9960.8      -0.180725       0.718268
  9961.81      -0.181896       0.712455
  9962.82      -0.18311       0.706895
  9963.83      -0.184281       0.700651
  9964.86      -0.185658       0.695207
  9965.86      -0.18712       0.689636
  9966.92      -0.189314       0.685412
  9967.93      -0.191136       0.682369
  9968.95      -0.193376       0.679941
  9969.97      -0.195388       0.678796
  9971      -0.197464       0.678338
  9972.05      -0.199365       0.679183
  9973.06      -0.20109       0.680166
  9974.08      -0.202426       0.680897
  9975.1      -0.20353       0.68132
  9976.12      -0.204059       0.680411
  9977.14      -0.204333       0.680851
  9978.16      -0.204158       0.680832
  9979.18      -0.203654       0.680629
  9980.2      -0.203206       0.680025
  9983      -0.200491       0.679571
  9985.02      -0.199011       0.680396
  9987.07      -0.196813       0.682807
  9989.12      -0.194185       0.684483
  9991.13      -0.191618       0.687099
  9993.13      -0.189604       0.689817
  9995.16      -0.188562       0.69242
  9997.18      -0.187662       0.694215
  9999.18      -0.186963       0.696816
  10001.206      -0.18563       0.699286
  10003.204      -0.184661       0.699886
  10005.230      -0.184648       0.698812
  10007.254      -0.18419       0.695753
  10009.263      -0.184089       0.692734
  10011.281      -0.184555       0.687238
  10013.284      -0.185204       0.680718
  10015.296      -0.186133       0.670584
  10017.308      -0.188341       0.65968
  10019.332      -0.183141       0.638799
  10021.343      -0.195191       0.644777
  10023.351      -0.19894       0.640826
  10025.365      -0.2021       0.637428
  10027.384      -0.204975       0.635562
  10029.423      -0.208349       0.633981
  10031.463      -0.211736       0.633942
  10033.483      -0.215216       0.632651
  10035.505      -0.217789       0.631834
  10037.525      -0.220242       0.630738
  10039.548      -0.222779       0.629894
  10041.570      -0.226566       0.629521
  10043.594      -0.230072       0.629083
  10045.619      -0.233269       0.628243
  10047.645      -0.235319       0.628729
  10049.701      -0.238157       0.629209
  10051.742      -0.241577       0.631872
  10053.770      -0.245088       0.636061
  10055.800      -0.247103       0.642762
  10057.851      -0.249537       0.650039
  10059.904      -0.251455       0.657284
  10061.979      -0.253858       0.658687
  10064.048      -0.259828       0.666357
  10066.089      -0.26069       0.665894
  10068.124      -0.261487       0.661294
  10070.192      -0.261658       0.651427
  10072.239      -0.262546       0.637363
  10074.277      -0.261108       0.617933
  10076.315      -0.264732       0.607384
  10078.397      -0.265712       0.594997
  10080.438      -0.266692       0.587599
  10082.479      -0.267795       0.58373
  10084.520      -0.259136       0.570411
  10086.586      -0.26971       0.582121
  10088.650      -0.27121       0.582076
  10090.695      -0.272497       0.581841
  10092.760      -0.272807       0.580776
  10094.830      -0.273875       0.579492
  10096.878      -0.274595       0.578601
  10098.926      -0.275983       0.579004
  10100.975      -0.277264       0.579984
  10103.025      -0.278254       0.581152
  10105.076      -0.279335       0.582299
  10107.132      -0.28294       0.583601
  10109.180      -0.283924       0.584218
  10111.234      -0.286059       0.584232
  10113.295      -0.287615       0.58283
  10115.346      -0.289033       0.581301
  10117.390      -0.291174       0.580609
  10119.500      -0.293486       0.581434
  10121.585      -0.295048       0.581986
  10123.669      -0.296597       0.582689
  10125.722      -0.297334       0.583179
  10127.804      -0.296774       0.580578
  10129.863      -0.301024       0.584239
  10131.927      -0.302251       0.583323
  10134.015      -0.303783       0.581863
  10136.079      -0.3054       0.578806
  10138.142      -0.307093       0.574386
  10140.214      -0.307824       0.569876
  10142.282      -0.310854       0.564782
  10144.346      -0.314004       0.559196
  10146.415      -0.315469       0.553252
  10148.485      -0.316673       0.547432
  10150.556      -0.31835       0.541703
  10152.628      -0.322325       0.539566
  10154.701      -0.32514       0.535866
  10156.774      -0.327469       0.531345
  10158.893      -0.329621       0.528235
  10160.969      -0.331941       0.525878
  10163.045      -0.333989       0.52468
  10165.122      -0.336102       0.523449
  10167.201      -0.337921       0.52295
  10169.280      -0.339495       0.522178
  10171.347      -0.340748       0.521523
  10173.441      -0.342566       0.521807
  10175.523      -0.344205       0.52249
  10177.605      -0.345636       0.522983
  10179.689      -0.346599       0.522982
  10181.774      -0.347907       0.523161
  10183.860      -0.349701       0.524171
  10185.945      -0.350879       0.523616
  10188.031      -0.352267       0.523849
  10190.122      -0.353569       0.522756
  10192.211      -0.353064       0.519641
  10194.307      -0.346561       0.508824
  10196.393      -0.356606       0.51801
  10198.485      -0.359192       0.517203
  10200.578      -0.360703       0.514513
  10202.672      -0.362074       0.511037
  10204.766      -0.363813       0.508257
  10206.862      -0.36497       0.504708
  10208.959      -0.3671       0.502583
  10211.040      -0.366413       0.499918
  10213.155      -0.370593       0.4959
  10215.255      -0.370583       0.492302
  10217.355      -0.370179       0.488007
  10219.447      -0.374937       0.487131
  10221.559      -0.375666       0.484074
  10223.662      -0.377422       0.480936
  10225.766      -0.378854       0.477731
  10227.871      -0.380188       0.474208
  10229.977      -0.381536       0.47164
  10232.124      -0.382985       0.468948
  10234.254      -0.384394       0.467308
  10236.346      -0.385764       0.4658
  10238.476      -0.386336       0.462799
  10240.612      -0.387869       0.46225
  10242.720      -0.389834       0.461696
  10244.816      -0.391048       0.460128
  10246.949      -0.392513       0.459089
  10249.064      -0.393739       0.457341
  10251.180      -0.394795       0.456154
  10253.299      -0.396157       0.455485
  10255.415      -0.397502       0.454318
  10257.532      -0.398792       0.453201
  10259.651      -0.399129       0.449615
  10261.771      -0.397372       0.435014
  10263.892      -0.399862       0.436597
  10266.014      -0.40495       0.447556
  10268.137      -0.406157       0.446197
  10270.267      -0.408029       0.444467
  10272.386      -0.409333       0.442838
  10274.513      -0.410774       0.441361
  10276.640      -0.41234       0.440211
  10278.767      -0.413736       0.438939
  10280.895      -0.415281       0.436879
  10285.020      -0.41734       0.42749
  10289.011      -0.421606       0.43097
  10293.007      -0.423985       0.426515
  10297.005      -0.426495       0.421103
  10301.007      -0.429283       0.416169
  10305.012      -0.430989       0.411342
  10309.020      -0.432275       0.405548
  10313.029      -0.434879       0.40171
  10317.047      -0.436622       0.39705
  10321.066      -0.439165       0.392783
  10325.134      -0.439947       0.389334
  10329.159      -0.440582       0.384334
  10333.189      -0.442212       0.382204
  10337.220      -0.446206       0.379776
  10341.255      -0.449968       0.376158
  10345.294      -0.450789       0.375227
  10349.337      -0.453038       0.372952
  10353.382      -0.456224       0.369493
  10357.431      -0.459835       0.367056
  10361.484      -0.463282       0.363038
  10365.540      -0.466933       0.36036
  10369.599      -0.466497       0.357466
  10373.662      -0.468596       0.354921
  10377.728      -0.473487       0.338855
  10381.798      -0.472275       0.347715
  10385.871      -0.470624       0.344793
  10389.948      -0.472352       0.341149
  10394.028      -0.475788       0.337102
  10398.105      -0.479029       0.333555
  10402.198      -0.47836       0.327168
  10406.289      -0.479118       0.327321
  10410.382      -0.482453       0.323266
  10414.479      -0.485193       0.318182
  10418.581      -0.487591       0.312044
  10422.685      -0.500758       0.286665
  10426.793      -0.493516       0.298749
  10430.904      -0.496284       0.295918
  10435.018      -0.498447       0.290099
  10439.137      -0.498703       0.288285
  10443.258      -0.499737       0.285415
  10447.384      -0.502201       0.282172
  10451.512      -0.503983       0.281043
  10455.644      -0.503937       0.27926
  10459.780      -0.503059       0.278214
  10463.919      -0.50558       0.276736
  10468.062      -0.507612       0.274586
  10472.209      -0.506494       0.268922
  10476.358      -0.506192       0.26994
  10480.512      -0.50941       0.264934
  10484.687      -0.512402       0.261249
  10488.882      -0.513235       0.256861
  10493.065      -0.516931       0.249114
  10497.256      -0.521006       0.247959
  10501.459      -0.524459       0.244546
  10505.662      -0.525047       0.241121
  10509.878      -0.524738       0.237113
  10514.057      -0.526703       0.233664
  10518.243      -0.530756       0.222222
  10522.432      -0.527429       0.225278
  10526.624      -0.528677       0.22146
  10530.821      -0.531598       0.215005
  10535.021      -0.532359       0.211748
  10539.224      -0.531895       0.207145
  10543.440      -0.533858       0.201021
  10547.642      -0.535827       0.19967
  10551.857      -0.538405       0.195975
  10556.087      -0.539144       0.193221
  10560.344      -0.542065       0.190021
  10564.569      -0.560318       0.16128
  10568.846      -0.546763       0.183521
  10573.079      -0.548718       0.181863
  10577.315      -0.55258       0.177733
  10581.587      -0.553504       0.176723
  10585.895      -0.554429       0.17437
  10590.145      -0.556033       0.171055
  10594.416      -0.558833       0.169337
  10598.696      -0.562025       0.164427
  10602.955      -0.563645       0.162406
  10607.216      -0.562752       0.158915
  10611.482      -0.56913       0.140879
  10615.751      -0.566427       0.150763
  10620.024      -0.5679       0.146742
  10624.350      -0.570189       0.142634
  10628.630      -0.573132       0.137824
  10632.916      -0.575461       0.132866
  10637.202      -0.577712       0.129397
  10641.494      -0.58055       0.124639
  10645.795      -0.582868       0.121107
  10650.088      -0.5862       0.116459
  10654.405      -0.58883       0.112249
  10658.752      -0.591943       0.107067
  10663.057      -0.595359       0.100769
  10667.370      -0.598566       0.100837
  10671.695      -0.601565       0.0975104
  10676.010      -0.608277       0.0868187
  10680.335      -0.609884       0.0914385
  10684.664      -0.615867       0.0877199
  10689.016      -0.616459       0.0781384
  10693.382      -0.61915       0.0821915
  10697.723      -0.62159       0.0802316
  10702.076      -0.623874       0.0775306
  10706.412      -0.627898       0.0745092
  10710.766      -0.635508       0.0560765
  10715.122      -0.633305       0.0667108
  10719.482      -0.6375       0.0638177
  10723.844      -0.640946       0.055127
  10728.211      -0.643352       0.0561549
  10732.582      -0.648621       0.052852
  10736.978      -0.656351       0.0350805
  10741.384      -0.654502       0.0438075
  10745.766      -0.659416       0.041279
  10750.166      -0.663396       0.0371852
  10754.592      -0.666047       0.033865
  10758.986      -0.669221       0.0262946
  10763.387      -0.673561       0.0118621
  10767.785      -0.676252       0.0202213
  10772.190      -0.677836       0.0127245
  10776.599      -0.683531       0.0134374
  10781.011      -0.686628       0.00953985
  10785.429      -0.69012      -0.00531971
  10789.850      -0.695655       0.00108653
  10794.275      -0.698303      -0.00350939
  10798.703      -0.702559      -0.00617464
  10803.128      -0.707147      -0.0127819
  10807.572      -0.710667      -0.0135889
  10812.012      -0.714634      -0.0282078
  10816.436      -0.718703      -0.0205867
  10820.904      -0.72115      -0.0232284
  10825.356      -0.72252      -0.0288195
  10829.812      -0.726571      -0.0294032
  10834.272      -0.728737      -0.0326829
  10838.805      -0.73158      -0.0384386
  10843.305      -0.735758      -0.0401938
  10847.776      -0.7395      -0.0420849
  10852.252      -0.742365      -0.0467288