File: root/data/Ti_foil_111.xdi
# XDI/1.0 Demeter/0.9.26
# Beamline.name: BM08-LISA
# Column.1: energy eV
# Column.2: mutrans
# Element.edge: K
# Element.symbol: Ti
# Facility.name: ESRF
# Facility.xray_source: Bending magnet
# Mono.d_spacing: 3.134692
# Mono.name: Si(111)
# Mono.notes: LNT cooled
# Sample.formula: Ti
# Sample.name: Ti metal foil
# Scan.start_time: 2017-04-08T13:49:32
# ///
# room temperature
#------------------------
#   energy  mutrans
  4865.87      -0.899842
  4870.84      -0.905187
  4875.86      -0.910501
  4880.86      -0.91573
  4885.87      -0.920896
  4890.93      -0.926163
  4895.97      -0.931449
  4900.92      -0.936543
  4905.86      -0.941584
  4910.84      -0.946605
  4915.9      -0.951668
  4920.94      -0.956628
  4925.96      -0.961512
  4931      -0.966387
  4936.09      -0.971028
  4941.14      -0.975453
  4946.16      -0.979486
  4951.18      -0.983005
  4956.19      -0.984847
  4961.2      -0.98084
  4961.45      -0.980124
  4961.71      -0.979418
  4962.2      -0.977603
  4962.2      -0.977626
  4962.44      -0.976421
  4962.69      -0.975105
  4963.18      -0.971667
  4963.19      -0.971644
  4963.42      -0.969538
  4963.68      -0.966822
  4964.17      -0.959283
  4964.17      -0.95924
  4964.42      -0.953929
  4964.65      -0.946796
  4965.15      -0.922656
  4965.16      -0.921844
  4965.4      -0.900302
  4965.65      -0.867481
  4966.14      -0.743259
  4966.15      -0.741885
  4966.39      -0.649786
  4966.63      -0.56037
  4966.89      -0.490244
  4967.12      -0.458269
  4967.38      -0.461958
  4967.63      -0.489601
  4967.87      -0.527549
  4968.13      -0.561391
  4968.36      -0.585699
  4968.61      -0.599028
  4969.1      -0.59717
  4969.11      -0.596759
  4969.36      -0.584464
  4969.61      -0.567226
  4969.85      -0.546109
  4970.11      -0.524653
  4970.36      -0.502795
  4970.61      -0.48312
  4971.1      -0.451862
  4971.11      -0.451263
  4971.61      -0.431701
  4971.61      -0.431455
  4972.11      -0.417957
  4972.12      -0.417742
  4972.35      -0.410173
  4972.6      -0.39932
  4973.08      -0.368007
  4973.09      -0.367034
  4973.58      -0.32065
  4973.59      -0.320313
  4974.09      -0.263865
  4974.1      -0.263403
  4974.33      -0.234377
  4974.58      -0.205515
  4975.07      -0.147862
  4975.07      -0.147263
  4975.33      -0.118723
  4975.57      -0.0914282
  4976.07      -0.0388353
  4976.08      -0.0382792
  4976.32      -0.0114596
  4976.57       0.0151243
  4977.06       0.0680849
  4977.07       0.0692794
  4977.56       0.120817
  4977.57       0.121348
  4978.06       0.168125
  4978.07       0.169277
  4978.31       0.190413
  4978.56       0.210301
  4978.81       0.229181
  4979.05       0.245928
  4979.31       0.261329
  4979.54       0.275404
  4980.05       0.300525
  4980.05       0.300836
  4980.29       0.311375
  4980.55       0.320881
  4981.03       0.336549
  4981.04       0.336694
  4981.29       0.343152
  4981.52       0.349208
  4981.79       0.354897
  4982.03       0.359996
  4982.27       0.364839
  4982.52       0.369374
  4983       0.378416
  4983.01       0.378701
  4983.26       0.383146
  4983.5       0.387539
  4983.99       0.395972
  4983.99       0.396001
  4984.24       0.399606
  4984.5       0.40259
  4984.73       0.404593
  4984.99       0.405497
  4985.47       0.403797
  4985.48       0.403739
  4985.97       0.396986
  4985.98       0.39689
  4986.23       0.391999
  4986.48       0.38622
  4986.97       0.373331
  4986.98       0.372924
  4987.21       0.366499
  4987.46       0.359979
  4987.71       0.353817
  4987.94       0.348245
  4988.2       0.343314
  4988.44       0.339146
  4988.93       0.33296
  4988.94       0.332881
  4989.17       0.330839
  4989.43       0.329365
  4989.91       0.327535
  4989.91       0.327401
  4990.17       0.326738
  4990.4       0.326089
  4990.9       0.324588
  4990.91       0.324558
  4991.15       0.323694
  4991.41       0.322794
  4991.89       0.320583
  4991.9       0.320541
  4992.15       0.319185
  4992.39       0.317621
  4992.89       0.314354
  4992.9       0.314247
  4993.14       0.312631
  4993.4       0.310936
  4993.89       0.307988
  4993.9       0.307962
  4994.39       0.306442
  4994.4       0.306368
  4994.89       0.306543
  4994.91       0.306675
  4995.15       0.30783
  4995.41       0.30956
  4995.9       0.315049
  4995.9       0.315132
  4996.15       0.318972
  4996.4       0.32372
  4996.66       0.329116
  4996.9       0.335018
  4997.15       0.341769
  4997.41       0.349175
  4997.91       0.365444
  4997.92       0.365745
  4998.17       0.374525
  4998.41       0.383351
  4998.67       0.39235
  4998.91       0.401112
  4999.42       0.41724
  4999.43       0.417465
  4999.92       0.430987
  4999.92       0.431091
  5000.16       0.436803
  5000.41       0.441912
  5000.9       0.449634
  5000.9       0.449652
  5001.16       0.452384
  5001.41       0.454144
  5001.9       0.455639
  5001.91       0.455859
  5002.15       0.455681
  5002.41       0.455331
  5002.9       0.453581
  5002.9       0.453647
  5003.16       0.452693
  5003.4       0.451749
  5003.91       0.44991
  5003.92       0.44973
  5004.16       0.448928
  5004.42       0.447966
  5004.92       0.445786
  5004.92       0.445808
  5005.18       0.444386
  5005.43       0.442805
  5005.94       0.438195
  5005.95       0.438168
  5006.45       0.431534
  5006.94       0.422594
  5007.96       0.398091
  5008.46       0.383294
  5008.96       0.367734
  5009.95       0.338562
  5010.46       0.325272
  5010.95       0.313832
  5011.44       0.304259
  5012.45       0.289997
  5012.94       0.284814
  5013.42       0.280419
  5014.42       0.271968
  5014.92       0.267752
  5015.9       0.25913
  5016.4       0.254518
  5016.9       0.250072
  5017.9       0.240709
  5018.4       0.236266
  5019.42       0.227309
  5019.92       0.223145
  5020.43       0.219261
  5021.45       0.212237
  5021.96       0.208925
  5022.96       0.203565
  5023.49       0.20134
  5024.48       0.198633
  5024.98       0.19835
  5025.99       0.199258
  5026.47       0.200557
  5027.47       0.203952
  5027.97       0.205845
  5028.96       0.210408
  5029.46       0.213337
  5030.46       0.220695
  5031.43       0.231213
  5031.92       0.238081
  5032.92       0.254243
  5033.41       0.2634
  5034.38       0.282461
  5035.4       0.302234
  5035.89       0.311585
  5036.86       0.328815
  5037.86       0.343627
  5038.36       0.350179
  5039.35       0.360009
  5040.37       0.365861
  5040.86       0.367141
  5041.83       0.366964
  5042.83       0.363993
  5043.33       0.361649
  5044.31       0.355691
  5045.33       0.347431
  5046.31       0.337238
  5046.83       0.331055
  5047.84       0.317488
  5048.85       0.302337
  5049.86       0.286075
  5050.37       0.277277
  5051.35       0.259707
  5052.35       0.241702
  5053.33       0.224293
  5054.31       0.208252
  5054.83       0.200812
  5055.8       0.188543
  5056.8       0.178825
  5057.78       0.172229
  5058.76       0.168333
  5059.76       0.166431
  5060.75       0.165455
  5061.73       0.164619
  5062.73       0.162816
  5063.23       0.161343
  5064.21       0.157636
  5065.22       0.152558
  5066.21       0.146971
  5067.21       0.141128
  5068.23       0.135598
  5069.21       0.127662
  5070.23       0.126556
  5071.21       0.123701
  5072.21       0.120723
  5073.22       0.118798
  5074.2       0.118475
  5075.21       0.119962
  5076.2       0.123446
  5077.19       0.128582
  5078.21       0.135091
  5079.69       0.147063
  5080.7       0.156562
  5081.69       0.167337
  5082.69       0.178856
  5083.7       0.190816
  5084.72       0.203087
  5085.73       0.215096
  5086.75       0.227131
  5088.26       0.243832
  5089.24       0.253611
  5090.25       0.261647
  5091.27       0.267029
  5092.26       0.269168
  5093.27       0.267891
  5094.76       0.25934
  5095.77       0.249521
  5096.78       0.236787
  5097.78       0.221492
  5099.3       0.195758
  5100.3       0.177271
  5101.31       0.159089
  5102.31       0.141582
  5103.82       0.117748
  5104.83       0.104577
  5105.83       0.0941652
  5107.34       0.0836908
  5108.33       0.0796819
  5109.34       0.0775394
  5110.84       0.0760005
  5111.84       0.075416
  5112.85       0.0747463
  5114.36       0.0735534
  5115.41       0.0727479
  5116.41       0.0719962
  5117.94       0.07081
  5118.95       0.0698372
  5120.48       0.0682107
  5121.47       0.0667967
  5122.98       0.0641855
  5123.98       0.0620316
  5124.96       0.0596475
  5126.46       0.0555649
  5127.45       0.0527771
  5128.91       0.0488806
  5129.9       0.046501
  5131.37       0.0437337
  5132.37       0.0424131
  5133.86       0.0415867
  5134.85       0.041785
  5136.37       0.043173
  5137.85       0.0458009
  5138.86       0.0483326
  5140.35       0.0526935
  5141.35       0.0559629
  5142.88       0.0614218
  5143.89       0.0654568
  5145.42       0.071525
  5146.92       0.0775875
  5147.94       0.0811721
  5149.43       0.0850675
  5150.94       0.0868195
  5151.95       0.0864955
  5153.45       0.0839433
  5154.97       0.0787677
  5155.97       0.0743159
  5157.48       0.0665826
  5158.99       0.0578855
  5160.02       0.0516953
  5161.53       0.0433653
  5163.06       0.0354685
  5164.59       0.0286176
  5165.62       0.0245083
  5167.16       0.0190163
  5168.68       0.0134208
  5170.19       0.00736128
  5171.2       0.00275854
  5172.73      -0.00504204
  5174.24      -0.0134463
  5175.76      -0.021715
  5177.25      -0.0292981
  5178.77      -0.0358667
  5179.77      -0.0397674
  5181.28      -0.044537
  5182.79      -0.0481887
  5184.28      -0.0510124
  5185.79      -0.0528779
  5187.28      -0.0543809
  5188.78      -0.0558094
  5190.3      -0.0570405
  5191.79      -0.0580616
  5192.79      -0.05876
  5194.3      -0.0594507
  5195.79      -0.0599921
  5197.3      -0.0603084
  5198.78      -0.0605618
  5200.28      -0.0609865
  5201.76      -0.0609303
  5203.24      -0.060519
  5204.76      -0.0599287
  5206.25      -0.0589191
  5207.76      -0.0580298
  5209.27      -0.0571376
  5210.76      -0.056428
  5212.27      -0.0561294
  5214.27      -0.0566615
  5215.74      -0.058087
  5217.24      -0.0601042
  5218.71      -0.0627968
  5220.2      -0.0657108
  5221.7      -0.0688622
  5223.17      -0.071855
  5224.66      -0.0746442
  5226.14      -0.0771408
  5228.09      -0.0802524
  5229.58      -0.082604
  5231.08      -0.0850635
  5232.56      -0.0876614
  5234.06      -0.0910262
  5235.57      -0.0945679
  5237.57      -0.0998179
  5239.08      -0.103906
  5240.57      -0.108119
  5242.05      -0.11241
  5244.07      -0.11821
  5245.57      -0.122529
  5247.1      -0.126949
  5248.6      -0.13112
  5250.59      -0.136632
  5252.1      -0.14072
  5253.59      -0.144572
  5255.54      -0.149414
  5257.04      -0.15304
  5258.54      -0.156279
  5260.53      -0.160196
  5262.06      -0.162935
  5263.57      -0.165175
  5265.6      -0.167844
  5267.11      -0.169423
  5268.59      -0.170754
  5270.57      -0.172147
  5272.08      -0.173085
  5274.03      -0.173944
  5275.51      -0.174532
  5277.48      -0.175391
  5278.96      -0.175962
  5280.45      -0.176733
  5282.44      -0.177836
  5283.94      -0.178666
  5285.92      -0.179935
  5287.41      -0.181107
  5289.4      -0.182906
  5290.9      -0.184646
  5292.91      -0.187459
  5294.44      -0.18978
  5296.43      -0.193212
  5298.41      -0.19658
  5299.9      -0.199094
  5301.88      -0.202248
  5303.35      -0.204583
  5305.32      -0.207357
  5306.81      -0.209628
  5308.8      -0.211987
  5310.78      -0.214708
  5312.3      -0.216782
  5314.32      -0.219646
  5316.29      -0.222626
  5317.78      -0.224865
  5319.77      -0.227905
  5321.77      -0.231079
  5323.26      -0.233593
  5325.25      -0.236788
  5327.25      -0.240259
  5328.74      -0.242773
  5330.73      -0.24622
  5332.77      -0.249669
  5334.81      -0.25348
  5336.31      -0.256357
  5338.31      -0.260145
  5340.33      -0.264061
  5342.33      -0.267968
  5343.83      -0.270861
  5345.84      -0.274594
  5347.85      -0.278099
  5349.85      -0.281381
  5351.85      -0.284357
  5353.88      -0.287075
  5355.39      -0.289055
  5357.39      -0.291349
  5359.38      -0.293472
  5361.41      -0.295383
  5363.4      -0.296991
  5365.42      -0.298582
  5367.48      -0.300044
  5369.52      -0.30142
  5371.53      -0.30295
  5373.04      -0.304175
  5375.05      -0.305978
  5377.06      -0.308
  5379.04      -0.310304
  5381.02      -0.312774
  5382.97      -0.315185
  5384.96      -0.317866
  5386.98      -0.320576
  5388.97      -0.32322
  5390.94      -0.325892
  5392.94      -0.328669
  5394.94      -0.331264
  5396.96      -0.334042
  5399.01      -0.336688
  5401.53      -0.33999
  5403.52      -0.342624
  5405.52      -0.345404
  5407.53      -0.348004
  5409.55      -0.350789
  5411.55      -0.353553
  5413.56      -0.356418
  5415.58      -0.359251
  5417.62      -0.361922
  5420.18      -0.365527
  5422.22      -0.368445
  5424.26      -0.371439
  5426.29      -0.374239
  5428.32      -0.377164
  5430.33      -0.380006
  5432.86      -0.383558
  5434.87      -0.386472
  5436.88      -0.39071
  5438.89      -0.391858
  5441.41      -0.395108
  5443.43      -0.397783
  5445.43      -0.400267
  5447.42      -0.402746
  5449.92      -0.405746
  5451.92      -0.408168
  5453.91      -0.410482
  5456.42      -0.413255
  5458.42      -0.415554
  5460.43      -0.417657
  5462.92      -0.420431
  5464.9      -0.422563
  5466.91      -0.424752
  5469.4      -0.427498
  5471.42      -0.42975
  5473.43      -0.431996
  5475.95      -0.434915
  5477.95      -0.436998
  5480.42      -0.439752
  5482.4      -0.441954
  5484.87      -0.444679
  5486.86      -0.446878
  5488.84      -0.449028
  5491.3      -0.451729
  5493.28      -0.454423
  5495.77      -0.457404
  5497.75      -0.459634
  5500.23      -0.462432
  5502.24      -0.464705
  5504.74      -0.467484
  5506.73      -0.469771
  5509.23      -0.472646
  5511.74      -0.475469
  5513.74      -0.477723
  5516.23      -0.480551
  5518.22      -0.482894
  5520.71      -0.485787
  5522.7      -0.488089
  5525.2      -0.491068
  5527.7      -0.493959
  5529.74      -0.496371
  5532.26      -0.499319
  5534.78      -0.502409
  5536.79      -0.504754
  5539.3      -0.507778
  5541.77      -0.510654
  5543.74      -0.512926
  5546.16      -0.515696
  5548.62      -0.518423
  5550.62      -0.520785
  5553.12      -0.523507
  5555.61      -0.526126
  5558.11      -0.528822
  5560.1      -0.530921
  5562.58      -0.533527
  5565.09      -0.536305
  5567.59      -0.538962
  5569.58      -0.541107
  5572.05      -0.543781
  5574.52      -0.546499
  5576.99      -0.549165
  5579.47      -0.551868
  5581.94      -0.55441
  5583.93      -0.556561
  5586.45      -0.559223
  5588.95      -0.561792
  5591.45      -0.564359
  5593.93      -0.566956
  5596.4      -0.569473
  5598.89      -0.572145
  5601.38      -0.574686
  5603.86      -0.577256
  5605.87      -0.579406
  5608.39      -0.582092
  5610.93      -0.584728
  5613.45      -0.587351
  5615.96      -0.590138
  5618.48      -0.592865
  5621.01      -0.595533
  5623.52      -0.598306
  5626      -0.600947
  5628.5      -0.603657
  5631.03      -0.606393
  5633.55      -0.609167
  5636.03      -0.611843
  5638.5      -0.614572
  5641.52      -0.618054
  5644.05      -0.620644
  5646.6      -0.623339
  5649.13      -0.626148
  5651.65      -0.628776
  5654.18      -0.631463
  5656.69      -0.634168
  5659.16      -0.636952
  5661.64      -0.639163
  5664.61      -0.642426
  5667.09      -0.645011
  5669.61      -0.647631
  5672.1      -0.650108
  5674.58      -0.65264
  5677.08      -0.655243
  5680.13      -0.658509
  5682.66      -0.660983
  5685.18      -0.663519
  5687.68      -0.666122
  5690.68      -0.669229
  5693.17      -0.671686
  5695.69      -0.674204
  5698.18      -0.67692
  5701.2      -0.67994
  5703.77      -0.682535
  5706.32      -0.685096
  5709.36      -0.688084
  5711.92      -0.690691
  5714.46      -0.693233
  5717.46      -0.696258
  5720      -0.698751
  5722.53      -0.701302
  5725.55      -0.704209
  5728.09      -0.706786
  5730.61      -0.709252
  5733.63      -0.712294
  5736.17      -0.714818
  5739.15      -0.717795
  5741.66      -0.720248
  5744.63      -0.723243
  5747.13      -0.725695
  5749.61      -0.728166
  5752.62      -0.731156
  5755.1      -0.733706
  5758.1      -0.736571
  5760.58      -0.739033
  5763.6      -0.742088
  5766.12      -0.744611
  5769.15      -0.74753
  5771.64      -0.750018
  5774.6      -0.752892
  5777.58      -0.755886
  5780.07      -0.758332
  5783.03      -0.761201
  5785.49      -0.763475
  5788.49      -0.766495
  5790.96      -0.768769
  5793.93      -0.771561
  5796.94      -0.77462
  5799.44      -0.776979
  5802.47      -0.779838
  5805.45      -0.782707
  5807.95      -0.785078
  5810.94      -0.787942
  5813.9      -0.790752
  5816.4      -0.793097
  5819.37      -0.795621
  5822.35      -0.798758
  5824.89      -0.801053
  5827.89      -0.803946
  5830.93      -0.8068
  5833.96      -0.809508
  5836.47      -0.811928
  5839.45      -0.81468
  5842.43      -0.817452
  5845.38      -0.820192
  5847.83      -0.822389
  5850.82      -0.825223
  5853.83      -0.827963
  5856.81      -0.830634
  5859.79      -0.833457
  5862.79      -0.836199
  5865.26      -0.838488
  5868.25      -0.84121
  5871.26      -0.843941
  5874.24      -0.846613
  5877.19      -0.849346
  5880.13      -0.852049
  5883.08      -0.85479
  5886.04      -0.857444
  5889.03      -0.860168
  5891.57      -0.862534
  5894.56      -0.865185
  5897.52      -0.867863
  5900.49      -0.87059
  5903.47      -0.873209
  5906.48      -0.875882
  5909.44      -0.878565
  5912.42      -0.881292
  5915.44      -0.883981
  5918.48      -0.88672
  5921.51      -0.889284
  5924.52      -0.892082
  5927.52      -0.894635
  5930.57      -0.897342
  5934.09      -0.90048
  5937.09      -0.903083
  5940.08      -0.905698
  5943.09      -0.908323
  5946.09      -0.910938
  5949.09      -0.91359
  5952.09      -0.916222
  5955.13      -0.918826
  5958.17      -0.921341
  5961.72      -0.924499
  5964.75      -0.92716
  5967.74      -0.92967
  5970.75      -0.932304
  5973.73      -0.934884
  5976.69      -0.937358
  5980.16      -0.940297
  5983.17      -0.942881
  5986.19      -0.945429
  5989.17      -0.948031
  5992.67      -0.95092
  5995.69      -0.953473
  5998.72      -0.956012
  6001.76      -0.958649
  6005.28      -0.961473
  6008.26      -0.964062
  6011.25      -0.9665
  6014.76      -0.969467
  6017.77      -0.971936
  6020.8      -0.97439
  6024.37      -0.977382
  6027.45      -0.979975
  6030.49      -0.982531
  6034.05      -0.98539
  6037.05      -0.987911
  6040.09      -0.990321
  6043.6      -0.993292
  6046.64      -0.995827
  6050.18      -0.998725
  6053.22       -1.00118
  6056.76       -1.0041
  6059.8       -1.00667
  6062.82       -1.00903
  6066.3       -1.01193
  6069.27       -1.01425
  6072.77       -1.01709
  6075.79       -1.01963
  6079.26       -1.02241
  6082.26       -1.02473
  6085.77       -1.02756
  6088.76       -1.03009
  6092.27       -1.03284
  6095.8       -1.03563
  6098.81       -1.03807
  6102.27       -1.04083
  6105.24       -1.0433
  6108.73       -1.04595
  6111.7       -1.04836
  6115.15       -1.05108
  6118.63       -1.0537
  6121.59       -1.05608
  6125.09       -1.05881
  6128.58       -1.06151
  6131.58       -1.06393
  6135.14       -1.0667
  6138.66       -1.06939
  6141.64       -1.0718
  6145.15       -1.07447
  6148.6       -1.0771
  6151.58       -1.07947
  6155.07       -1.08214
  6158.55       -1.08484
  6162.09       -1.08759
  6165.11       -1.09001
  6168.65       -1.09256
  6172.17       -1.0953
  6175.68       -1.09797
  6178.66       -1.10024
  6182.09       -1.10285
  6185.55       -1.10545
  6189.02       -1.10809
  6192.56       -1.11074
  6195.56       -1.11306
  6199.07       -1.11581
  6202.53       -1.11831
  6205.99       -1.12097
  6209.51       -1.12354
  6212.97       -1.12616
  6216.46       -1.12875
  6219.91       -1.13131
  6223.35       -1.13391
  6226.34       -1.13603
  6229.78       -1.13862
  6233.31       -1.14116
  6236.83       -1.14378
  6240.29       -1.14636
  6243.77       -1.14884
  6247.23       -1.15141
  6250.69       -1.15387
  6254.16       -1.15645
  6257.65       -1.15899
  6261.13       -1.16149
  6264.7       -1.16416
  6268.24       -1.1667
  6271.73       -1.16921
  6275.24       -1.17174
  6278.77       -1.17424
  6282.8       -1.17713
  6286.32       -1.17966
  6289.84       -1.18226
  6293.34       -1.18475
  6296.82       -1.1872
  6300.31       -1.18965
  6303.81       -1.19201
  6307.36       -1.19462
  6310.9       -1.19707
  6314.96       -1.19998
  6318.5       -1.2025
  6321.97       -1.20496
  6325.44       -1.20736
  6328.89       -1.2097
  6332.85       -1.21247
  6336.35       -1.21499
  6339.84       -1.21734
  6343.36       -1.2198
  6346.85       -1.22222
  6350.86       -1.22498
  6354.39       -1.22742
  6357.91       -1.22979
  6361.93       -1.23251
  6365.42       -1.23504
  6368.93       -1.23731
  6372.46       -1.23966
  6376.44       -1.24246
  6380       -1.24489
  6383.54       -1.2473
  6387.65       -1.25011
  6391.2       -1.25247
  6395.24       -1.25509
  6398.77       -1.25752
  6402.28       -1.25995
  6406.29       -1.26257
  6409.84       -1.26501
  6413.91       -1.26773
  6417.43       -1.26997
  6420.96       -1.27229
  6425.03       -1.27504
  6428.54       -1.27731
  6432.57       -1.28001
  6436.05       -1.28228
  6440       -1.28487
  6443.51       -1.28713
  6447.49       -1.28987
  6450.99       -1.29204
  6454.98       -1.29465
  6458.49       -1.29691
  6462.54       -1.29964
  6466.05       -1.30185
  6470.02       -1.30452
  6474       -1.30702
  6477.47       -1.30932
  6481.45       -1.31179
  6484.89       -1.31403
  6488.87       -1.31657
  6492.82       -1.31902