File: root/data/Ti_foil_311.xdi
# XDI/1.0 Demeter/0.9.26
# Beamline.name: BM08-LISA
# Column.1: energy eV
# Column.2: mutrans
# Element.edge: K
# Element.symbol: Ti
# Facility.name: ESRF
# Facility.xray_source: Bending magnet
# Mono.d_spacing: 1.637039
# Mono.name: Si(311)
# Mono.notes: LNT cooled
# Sample.formula: Ti
# Sample.name: Ti metal foil
# Scan.start_time: 2017-06-21T15:01:17
# ///
# room temperature
#------------------------
#   energy  mutrans
  4907.58      -0.585406
  4912.58      -0.590715
  4917.58      -0.59679
  4922.55      -0.602576
  4927.55      -0.607838
  4932.54      -0.613637
  4937.53      -0.618877
  4942.48      -0.624157
  4947.45      -0.62848
  4947.93      -0.629037
  4948.41      -0.629643
  4948.9      -0.629898
  4949.4      -0.630384
  4949.89      -0.630595
  4950.39      -0.631025
  4950.88      -0.631395
  4951.37      -0.631871
  4951.87      -0.631763
  4952.37      -0.632584
  4952.88      -0.632713
  4953.38      -0.633053
  4953.89      -0.633429
  4954.38      -0.633562
  4954.88      -0.633969
  4955.38      -0.634163
  4955.88      -0.634709
  4956.38      -0.634502
  4956.87      -0.635032
  4957.38      -0.634964
  4957.88      -0.634917
  4958.37      -0.635193
  4958.88      -0.634691
  4959.38      -0.634626
  4959.89      -0.634817
  4960.4      -0.634345
  4960.91      -0.633598
  4961.4      -0.633288
  4961.9      -0.632315
  4962.4      -0.63157
  4962.9      -0.629598
  4963.4      -0.627951
  4963.9      -0.625353
  4964.39      -0.621709
  4964.89      -0.616853
  4965.39      -0.607725
  4965.89      -0.594577
  4966.39      -0.567674
  4966.9      -0.501844
  4967.4      -0.316346
  4967.89      -0.0783371
  4968.39      -0.0515207
  4968.89      -0.161523
  4969.38      -0.249757
  4969.9      -0.269543
  4970.39      -0.246393
  4970.9      -0.199444
  4971.39      -0.149392
  4971.89      -0.109816
  4972.4      -0.0842811
  4972.9      -0.0712491
  4973.41      -0.0623833
  4973.91      -0.0399216
  4974.41       0.00338557
  4974.92       0.0612895
  4975.42       0.123719
  4975.93       0.186101
  4976.44       0.244149
  4976.96       0.298803
  4977.46       0.352527
  4977.97       0.40586
  4978.48       0.460926
  4978.98       0.511032
  4979.49       0.550249
  4980       0.597446
  4980.5       0.626331
  4981       0.652124
  4981.5       0.672724
  4982       0.688313
  4982.5       0.701367
  4983       0.712132
  4983.51       0.721496
  4984.01       0.73082
  4984.52       0.739769
  4985.02       0.749241
  4985.53       0.7565
  4986.05       0.759278
  4986.55       0.757598
  4987.07       0.749435
  4987.58       0.73733
  4988.12       0.721956
  4988.65       0.706111
  4989.2       0.69353
  4989.74       0.685065
  4990.28       0.68005
  4990.85       0.678266
  4991.42       0.676501
  4992       0.675127
  4992.59       0.672918
  4993.18       0.669712
  4993.78       0.665528
  4994.4       0.661403
  4995.01       0.656947
  4995.62       0.654954
  4996.25       0.656757
  4996.88       0.662919
  4997.51       0.673263
  4998.15       0.688904
  4998.8       0.708952
  4999.44       0.731927
  5000.12       0.756579
  5000.78       0.777139
  5001.46       0.792931
  5002.13       0.802464
  5002.82       0.806204
  5003.52       0.804969
  5004.23       0.80204
  5004.94       0.799389
  5005.67       0.79668
  5006.38       0.793293
  5007.11       0.78693
  5007.85       0.775708
  5008.59       0.758677
  5009.35       0.737503
  5010.12       0.713498
  5010.88       0.690114
  5011.65       0.668706
  5012.43       0.652507
  5013.22       0.640229
  5014       0.631567
  5014.8       0.624346
  5015.6       0.617568
  5016.4       0.611
  5017.23       0.603162
  5018.04       0.594965
  5018.88       0.587432
  5019.72       0.580151
  5020.57       0.571896
  5021.41       0.564945
  5022.27       0.559167
  5023.12       0.553146
  5024       0.548684
  5024.88       0.544859
  5025.77       0.542775
  5026.66       0.542712
  5027.55       0.544922
  5028.46       0.547627
  5029.37       0.551268
  5030.3       0.555948
  5031.21       0.561488
  5032.13       0.569996
  5033.06       0.58247
  5034.01       0.597603
  5034.97       0.61585
  5035.94       0.635362
  5036.91       0.65406
  5037.91       0.671767
  5038.89       0.686729
  5039.88       0.698671
  5040.87       0.707496
  5041.87       0.710979
  5042.88       0.710722
  5043.91       0.707488
  5044.95       0.702427
  5045.99       0.694326
  5047.03       0.684426
  5048.08       0.672194
  5049.13       0.658044
  5050.19       0.64117
  5051.26       0.623241
  5052.33       0.604488
  5053.42       0.583871
  5054.5       0.564528
  5055.6       0.546177
  5056.69       0.53126
  5057.8       0.520169
  5058.92       0.512435
  5060.05       0.507277
  5061.21       0.505084
  5062.37       0.504896
  5063.54       0.503174
  5064.71       0.499405
  5065.87       0.494389
  5067.05       0.487868
  5068.22       0.48036
  5069.41       0.474011
  5070.6       0.468724
  5071.82       0.463832
  5073.04       0.459554
  5074.27       0.456081
  5075.48       0.455617
  5076.69       0.458307
  5077.93       0.462713
  5079.18       0.47048
  5080.43       0.479982
  5081.68       0.491583
  5082.94       0.505111
  5084.2       0.519402
  5085.46       0.534946
  5086.73       0.550018
  5088.01       0.5646
  5089.28       0.579053
  5090.57       0.591878
  5091.87       0.601138
  5093.2       0.605613
  5094.5       0.604331
  5095.83       0.596481
  5097.17       0.582749
  5098.51       0.564323
  5099.84       0.541783
  5101.19       0.517494
  5102.55       0.492487
  5103.89       0.468008
  5105.26       0.448162
  5106.62       0.431046
  5108       0.419633
  5109.4       0.4129
  5110.76       0.409753
  5112.17       0.409107
  5113.57       0.407758
  5114.99       0.406029
  5116.41       0.405115
  5117.84       0.403677
  5119.26       0.401868
  5120.68       0.401482
  5122.12       0.398881
  5123.57       0.396342
  5125.03       0.393306
  5126.52       0.390017
  5128       0.385017
  5129.48       0.380605
  5130.96       0.376709
  5132.47       0.373869
  5133.99       0.372004
  5135.51       0.37108
  5137.03       0.371751
  5138.55       0.374102
  5140.1       0.377626
  5141.63       0.381928
  5143.19       0.387211
  5144.74       0.392818
  5146.28       0.398205
  5147.85       0.405144
  5149.43       0.410104
  5151.03       0.414211
  5152.65       0.415275
  5154.27       0.412534
  5155.89       0.407915
  5157.51       0.400188
  5159.15       0.391207
  5160.77       0.381876
  5162.43       0.372211
  5164.09       0.363019
  5165.77       0.354814
  5167.42       0.348685
  5169.07       0.342325
  5170.76       0.335686
  5172.44       0.328043
  5174.14       0.318926
  5175.83       0.309877
  5177.5       0.300511
  5179.21       0.29144
  5180.9       0.284736
  5182.61       0.278749
  5184.32       0.274669
  5186.05       0.271328
  5187.77       0.269619
  5189.53       0.267632
  5191.29       0.265607
  5193.03       0.264566
  5194.79       0.263143
  5196.57       0.262159
  5198.33       0.261307
  5200.09       0.260859
  5201.87       0.260732
  5203.64       0.260665
  5205.44       0.260741
  5207.25       0.261808
  5209.06       0.262746
  5210.87       0.26355
  5212.7       0.264382
  5214.49       0.263866
  5216.32       0.262881
  5218.15       0.260435
  5220.01       0.256933
  5221.89       0.252709
  5223.75       0.248633
  5225.62       0.244636
  5227.52       0.241224
  5229.42       0.237844
  5231.31       0.234906
  5233.2       0.231441
  5235.12       0.227492
  5237.03       0.222611
  5238.98       0.217357
  5240.9       0.211298
  5242.82       0.205923
  5244.76       0.200394
  5246.73       0.19444
  5248.72       0.188333
  5250.72       0.181822
  5252.71       0.176965
  5254.7       0.170956
  5256.7       0.165922
  5258.73       0.16087
  5260.76       0.156236
  5262.8       0.152409
  5264.79       0.149253
  5266.83       0.146026
  5268.88       0.14337
  5270.92       0.141691
  5272.98       0.140378
  5275.02       0.139186
  5277.08       0.138035
  5279.12       0.136796
  5281.18       0.135917
  5283.27       0.134445
  5285.34       0.132802
  5287.45       0.132034
  5289.55       0.129659
  5291.65       0.126958
  5293.76       0.124582
  5295.89       0.121114
  5298       0.116806
  5300.12       0.112883
  5302.24       0.109738
  5304.36       0.105268
  5306.52       0.10239
  5308.68       0.0994583
  5310.83       0.0965968
  5312.97       0.0931248
  5315.11       0.089973
  5317.29       0.0866566
  5319.48       0.0829334
  5321.69       0.0791855
  5323.89       0.075597
  5326.09       0.0717222
  5328.33       0.067923
  5330.57       0.0642404
  5332.78       0.0594435
  5335.03       0.0550642
  5337.28       0.0511842
  5339.55       0.0462383
  5341.81       0.0423043
  5344.06       0.0370705
  5346.32       0.0326053
  5348.62       0.0283842
  5350.93       0.0238493
  5353.26       0.0199957
  5355.57       0.016805
  5357.9       0.0136414
  5360.26       0.0112348
  5362.63       0.00875621
  5364.99       0.00686869
  5367.31       0.00409858
  5369.66       0.00286233
  5372.04       0.000620707
  5374.41      -0.00123833
  5376.78      -0.00375996
  5379.13      -0.00630501
  5381.51      -0.00944009
  5383.87      -0.0124626
  5386.27      -0.0159201
  5388.66      -0.0194662
  5391.08      -0.0231192
  5393.49      -0.0266938
  5395.89      -0.0301779
  5398.33      -0.0336993
  5400.77      -0.0370516
  5403.2      -0.0402084
  5405.63      -0.0438335
  5408.05      -0.0472758
  5410.51      -0.0511396
  5412.98      -0.0547442
  5415.44      -0.0580238
  5417.89      -0.061743
  5420.35      -0.0649976
  5422.83      -0.0688224
  5425.34      -0.0731715
  5427.85      -0.0769392
  5430.36      -0.080962
  5432.89      -0.0844239
  5435.43      -0.0881351
  5437.95      -0.0920639
  5440.49      -0.0957838
  5443.04      -0.0988199
  5445.6      -0.102816
  5448.18      -0.106482
  5450.73      -0.10952
  5453.29      -0.112387
  5455.9      -0.115908
  5458.51      -0.119034
  5461.13      -0.122163
  5463.75      -0.125085
  5466.37      -0.12853
  5469.05      -0.131441
  5471.71      -0.134965
  5474.36      -0.138069
  5476.98      -0.140943
  5479.67      -0.144095
  5482.32      -0.147145
  5484.98      -0.15074
  5487.65      -0.153545
  5490.33      -0.156702
  5492.98      -0.159908
  5495.66      -0.164488
  5498.37      -0.167159
  5501.08      -0.170818
  5503.78      -0.173841
  5506.47      -0.176896
  5509.19      -0.180429
  5511.93      -0.183929
  5514.66      -0.186943
  5517.39      -0.19047